Filename	LLM_EP0905_20%02_Oscillatory temperature sweep_Flow
Instrument name	5333-0626
Operator	LIMING
rundate	21/05/2025
Sample name	LLM_EP0905_20%02_Oscillatory temperature sweep_Flow
Geometry name	8.0mm parallel plate, UPP Stainless steel  - 119113 new 30 11 22
Procedure name	Sample
	Temperature ramp
	Temperature ramp
	Temperature ramp
	Temperature ramp
	Flow sweep
	Flow sweep
	Flow sweep
	Flow sweep
	Flow sweep
	Flow sweep
	Axial
	Sample
proceduresegments	Temperature ramp#Temperature ramp#Temperature ramp#Temperature ramp#Flow sweep#Flow sweep#Flow sweep#Flow sweep#Flow sweep#Flow sweep#Axial
[step]
Temperature ramp - 1
Storage modulus	Loss modulus	Tan(delta)	Angular frequency	Oscillation torque	Step time	Temperature	Raw phase	Oscillation displacement
MPa	MPa		rad/s	µN.m	s	°C	°	rad
6.75865e-4	1.32124e-3	1.95490	10.0001	0.198719	6.12396	149.76	166.490	7.86542e-5
7.00371e-4	1.32565e-3	1.89278	10.0001	0.197801	12.9209	149.42	166.386	7.86083e-5
6.92649e-4	1.37311e-3	1.98240	10.0001	0.198397	19.8052	149.08	165.937	7.85822e-5
7.33113e-4	1.44317e-3	1.96855	10.0001	0.197273	26.5897	148.85	165.147	7.84373e-5
7.45198e-4	1.42301e-3	1.90958	10.0001	0.197426	33.2933	148.61	165.313	7.87340e-5
7.54232e-4	1.49234e-3	1.97863	10.0001	0.197115	40.2184	148.40	164.606	7.84804e-5
8.06284e-4	1.51182e-3	1.87505	10.0001	0.195755	47.1021	148.22	164.269	7.85671e-5
8.28506e-4	1.54839e-3	1.86889	10.0001	0.195473	53.8451	148.02	163.846	7.86135e-5
8.32631e-4	1.52851e-3	1.83575	10.0001	0.195504	60.6858	147.74	164.032	7.87593e-5
8.90602e-4	1.63935e-3	1.84072	10.0001	0.193482	67.4043	147.54	162.763	7.82815e-5
8.93710e-4	1.65576e-3	1.85268	10.0001	0.194577	74.3069	147.34	162.588	7.86979e-5
9.25327e-4	1.69083e-3	1.82728	10.0001	0.193460	81.1381	147.05	162.145	7.85222e-5
9.42936e-4	1.75844e-3	1.86486	10.0001	0.193499	87.9391	146.91	161.420	7.84755e-5
9.95284e-4	1.78032e-3	1.78876	10.0001	0.192119	94.6981	146.63	161.028	7.85209e-5
1.01704e-3	1.85434e-3	1.82327	10.0001	0.192087	101.574	146.39	160.222	7.84500e-5
1.04908e-3	1.89924e-3	1.81038	10.0001	0.191600	107.743	146.18	159.667	7.84614e-5
1.06851e-3	1.93699e-3	1.81280	10.0001	0.191833	114.627	145.97	159.224	7.86279e-5
1.09781e-3	1.95293e-3	1.77894	10.0001	0.190962	121.514	145.72	158.958	7.85828e-5
1.13114e-3	2.03695e-3	1.80079	10.0001	0.190574	128.248	145.50	158.005	7.84261e-5
1.16636e-3	2.06640e-3	1.77167	10.0001	0.190055	135.395	145.29	157.575	7.85229e-5
1.19407e-3	2.15633e-3	1.80587	10.0001	0.190134	142.274	145.04	156.588	7.84176e-5
1.25116e-3	2.20422e-3	1.76174	10.0001	0.189083	149.118	144.85	155.880	7.84606e-5
1.24598e-3	2.21068e-3	1.77425	10.0001	0.189965	155.975	144.57	155.844	7.87186e-5
1.28107e-3	2.27367e-3	1.77482	10.0001	0.189280	162.929	144.39	155.076	7.85190e-5
1.31999e-3	2.35615e-3	1.78497	10.0001	0.189108	169.656	144.14	154.110	7.84441e-5
1.35574e-3	2.38524e-3	1.75936	10.0001	0.188708	176.547	143.89	153.663	7.85593e-5
1.40844e-3	2.42098e-3	1.71890	10.0001	0.187549	183.413	143.70	153.065	7.85311e-5
1.42162e-3	2.47129e-3	1.73836	10.0001	0.188024	190.142	143.41	152.525	7.85639e-5
1.44845e-3	2.54952e-3	1.76017	10.0001	0.188096	197.000	143.22	151.653	7.84050e-5
1.51202e-3	2.62960e-3	1.73913	10.0001	0.187539	203.816	142.96	150.578	7.84208e-5
1.53213e-3	2.67852e-3	1.74823	10.0001	0.188110	210.607	142.81	150.013	7.85602e-5
1.57760e-3	2.70807e-3	1.71658	10.0001	0.187251	217.383	142.52	149.498	7.85590e-5
1.61044e-3	2.81476e-3	1.74782	10.0001	0.187753	224.294	142.31	148.335	7.83735e-5
1.67953e-3	2.81992e-3	1.67899	10.0001	0.186179	231.038	142.10	147.895	7.85359e-5
1.69403e-3	2.87659e-3	1.69808	10.0001	0.186873	237.924	141.86	147.299	7.85603e-5
1.69289e-3	2.95364e-3	1.74473	10.0001	0.188374	244.945	141.60	146.610	7.85571e-5
1.74668e-3	3.04298e-3	1.74215	10.0001	0.188144	251.720	141.45	145.497	7.83841e-5
1.80487e-3	3.05835e-3	1.69449	10.0001	0.187139	258.528	141.15	145.010	7.85367e-5
1.86709e-3	3.15143e-3	1.68788	10.0001	0.186846	265.352	140.89	143.806	7.83610e-5
1.89270e-3	3.23788e-3	1.71072	10.0001	0.188139	272.227	140.77	142.898	7.84465e-5
1.95881e-3	3.27900e-3	1.67398	10.0001	0.187282	279.067	140.56	142.124	7.84911e-5
1.95999e-3	3.36688e-3	1.71781	10.0001	0.189134	285.828	140.26	141.378	7.84811e-5
2.02322e-3	3.41936e-3	1.69006	10.0001	0.188502	292.621	140.14	140.517	7.84514e-5
2.00863e-3	3.51600e-3	1.75045	10.0001	0.191318	299.568	139.88	139.829	7.85551e-5
2.12925e-3	3.55741e-3	1.67073	10.0001	0.188707	306.296	139.61	138.668	7.84095e-5
2.16826e-3	3.62341e-3	1.67111	10.0001	0.189423	313.186	139.43	137.865	7.84902e-5
2.20034e-3	3.70642e-3	1.68447	10.0001	0.190494	319.953	139.25	136.987	7.84608e-5
2.22216e-3	3.77717e-3	1.69977	10.0001	0.191800	326.790	138.87	136.297	7.85283e-5
2.30620e-3	3.83365e-3	1.66233	10.0001	0.190911	333.643	138.66	135.257	7.84635e-5
2.39086e-3	3.95698e-3	1.65505	10.0001	0.191448	341.070	138.43	133.714	7.82715e-5
2.43267e-3	4.04445e-3	1.66256	10.0001	0.193075	348.195	138.27	132.768	7.84328e-5
2.44309e-3	4.09381e-3	1.67567	10.0001	0.194594	355.078	137.95	132.348	7.86343e-5
2.53446e-3	4.23109e-3	1.66942	10.0001	0.195104	361.840	137.79	130.702	7.82424e-5
2.59387e-3	4.26293e-3	1.64346	10.0001	0.195512	368.526	137.54	130.031	7.86094e-5
2.63919e-3	4.40361e-3	1.66855	10.0001	0.197612	375.322	137.28	128.763	7.83296e-5
2.71909e-3	4.45960e-3	1.64011	10.0001	0.197654	382.213	137.03	127.762	7.84170e-5
2.78540e-3	4.59665e-3	1.65026	10.0001	0.199631	389.033	136.77	126.397	7.82411e-5
2.84550e-3	4.62024e-3	1.62370	10.0001	0.199884	395.932	136.71	125.769	7.85649e-5
2.86314e-3	4.76301e-3	1.66356	10.0001	0.203103	402.895	136.41	124.806	7.83679e-5
2.96098e-3	4.85195e-3	1.63863	10.0001	0.203638	409.730	136.09	123.518	7.83240e-5
2.98097e-3	4.94100e-3	1.65751	10.0001	0.206337	416.477	135.89	122.874	7.85033e-5
3.07067e-3	5.03028e-3	1.63817	10.0001	0.206928	423.274	135.66	121.673	7.83598e-5
3.16534e-3	5.13364e-3	1.62183	10.0001	0.208139	430.133	135.48	120.373	7.82905e-5
3.24214e-3	5.25353e-3	1.62039	10.0001	0.210635	436.940	135.20	119.170	7.83645e-5
3.25481e-3	5.33478e-3	1.63904	10.0001	0.213386	443.762	135.00	118.692	7.85393e-5
3.42148e-3	5.53259e-3	1.61702	10.0001	0.215199	450.901	134.78	116.448	7.79418e-5
3.47445e-3	5.64212e-3	1.62389	10.0001	0.219004	457.616	134.57	115.570	7.83694e-5
3.49375e-3	5.78860e-3	1.65685	10.0001	0.223520	464.510	134.33	114.842	7.84231e-5
3.67865e-3	5.89144e-3	1.60152	10.0001	0.223362	471.273	134.07	112.961	7.81417e-5
3.79784e-3	6.00774e-3	1.58188	10.0001	0.225845	478.032	133.91	111.580	7.82412e-5
3.85044e-3	6.12191e-3	1.58992	10.0001	0.229295	484.842	133.71	110.782	7.83728e-5
3.96794e-3	6.21970e-3	1.56749	10.0001	0.230825	491.748	133.47	109.531	7.82864e-5
3.98224e-3	6.35657e-3	1.59623	10.0001	0.235477	498.595	133.13	109.027	7.83869e-5
4.08769e-3	6.54428e-3	1.60097	10.0001	0.239773	505.427	132.91	107.686	7.81336e-5
4.14458e-3	6.70249e-3	1.61717	10.0001	0.244954	512.301	132.76	106.850	7.82934e-5
4.22242e-3	6.85467e-3	1.62340	10.0001	0.249329	519.102	132.52	105.893	7.83001e-5
4.36578e-3	6.82035e-3	1.56223	10.0001	0.247386	525.836	132.32	104.854	7.84779e-5
4.49897e-3	6.97203e-3	1.54969	10.0001	0.250357	532.743	132.03	103.512	7.81499e-5
4.54644e-3	7.32124e-3	1.61032	10.0001	0.261098	539.586	131.76	102.533	7.79177e-5
4.80296e-3	7.39007e-3	1.53865	10.0001	0.262237	546.400	131.62	100.510	7.80893e-5
4.75211e-3	7.54480e-3	1.58767	10.0001	0.269093	553.707	131.40	100.672	7.84455e-5
4.85193e-3	7.77367e-3	1.60218	10.0001	0.275091	562.241	131.03	99.6587	7.80932e-5
5.02139e-3	8.07531e-3	1.60818	10.0001	0.283660	569.007	130.85	98.1227	7.78311e-5
5.26967e-3	8.21378e-3	1.55869	10.0001	0.288243	575.831	130.65	96.2805	7.80683e-5
5.31353e-3	8.35231e-3	1.57189	10.0001	0.294097	582.607	130.40	95.8809	7.83934e-5
5.44072e-3	8.49783e-3	1.56189	10.0001	0.298183	589.253	130.16	94.9310	7.82445e-5
5.55647e-3	8.74762e-3	1.57431	10.0001	0.305906	596.039	129.98	94.0364	7.80729e-5
5.76840e-3	8.92927e-3	1.54796	10.0001	0.311450	602.870	129.69	92.6003	7.79862e-5
5.85071e-3	9.13047e-3	1.56058	10.0001	0.319324	609.661	129.58	92.0265	7.82257e-5
5.95765e-3	9.28037e-3	1.55773	10.0001	0.324641	616.649	129.30	91.3362	7.82757e-5
6.14745e-3	9.67387e-3	1.57364	10.0001	0.335588	623.350	129.00	90.1564	7.76416e-5
6.26706e-3	9.67877e-3	1.54439	10.0001	0.339629	630.120	128.80	89.4470	7.85306e-5
6.41888e-3	9.92683e-3	1.54651	10.0001	0.346166	636.995	128.59	88.5863	7.80250e-5
6.50486e-3	0.0101258	1.55665	10.0001	0.354194	643.789	128.33	88.1284	7.82490e-5
6.71459e-3	0.0103572	1.54249	10.0001	0.360970	650.644	128.11	87.0100	7.78948e-5
6.87223e-3	0.0105878	1.54067	10.0001	0.370050	657.479	127.86	86.2281	7.80597e-5
7.07796e-3	0.0108168	1.52824	10.0001	0.378399	664.376	127.67	85.2223	7.80247e-5
7.12612e-3	0.0110148	1.54569	10.0001	0.386826	671.067	127.40	85.0626	7.83191e-5
7.42999e-3	0.0113744	1.53088	10.0001	0.397024	677.950	127.28	83.6974	7.76495e-5
7.57738e-3	0.0117049	1.54472	10.0001	0.410537	684.673	126.94	83.1628	7.79441e-5
7.75791e-3	0.0118426	1.52652	10.0001	0.417739	691.565	126.77	82.3815	7.82528e-5
7.88970e-3	0.0121461	1.53948	10.0001	0.427709	698.477	126.54	81.9589	7.80389e-5
8.06312e-3	0.0123521	1.53192	10.0001	0.436460	705.243	126.33	81.3049	7.81797e-5
8.26921e-3	0.0126742	1.53270	10.0001	0.447311	712.036	126.10	80.6122	7.79332e-5
8.24357e-3	0.0129315	1.56868	10.0001	0.458706	718.973	125.80	80.9096	7.84038e-5
8.68572e-3	0.0131781	1.51721	10.0001	0.466481	725.793	125.64	79.2066	7.78207e-5
8.88501e-3	0.0135904	1.52959	10.0001	0.482247	732.598	125.40	78.7203	7.78934e-5
9.14341e-3	0.0140646	1.53823	10.0001	0.499322	739.376	125.18	78.0784	7.77479e-5
9.35537e-3	0.0144233	1.54171	10.0001	0.514323	746.189	124.94	77.5612	7.79401e-5
9.62852e-3	0.0147640	1.53336	10.0001	0.527767	753.115	124.66	76.8292	7.79010e-5
9.77292e-3	0.0152365	1.55905	10.0001	0.545416	759.945	124.47	76.7091	7.79727e-5
0.0100549	0.0155159	1.54311	10.0001	0.557731	766.698	124.22	75.9576	7.80539e-5
0.0102730	0.0160024	1.55772	10.0001	0.575229	773.463	124.01	75.6350	7.79502e-5
0.0105910	0.0161988	1.52948	10.0001	0.586086	780.289	123.82	74.7464	7.81249e-5
0.0106455	0.0166049	1.55981	10.0001	0.601082	787.196	123.57	74.9287	7.82367e-5
0.0110210	0.0172629	1.56636	10.0001	0.621595	793.961	123.30	74.3167	7.75953e-5
0.0113353	0.0174572	1.54008	10.0001	0.635881	800.762	123.13	73.5295	7.81843e-5
0.0116410	0.0180857	1.55362	10.0001	0.656310	807.596	122.93	73.1793	7.77433e-5
0.0118485	0.0184259	1.55512	10.0001	0.673251	814.463	122.63	72.8833	7.81620e-5
0.0120665	0.0189661	1.57180	10.0001	0.691785	821.383	122.49	72.7393	7.79585e-5
0.0124936	0.0196227	1.57062	10.0001	0.715622	828.099	122.16	72.1485	7.76982e-5
0.0127562	0.0201361	1.57854	10.0001	0.738344	834.951	121.98	71.8975	7.80079e-5
0.0132380	0.0204743	1.54663	10.0001	0.753789	841.805	121.73	70.9649	7.79021e-5
0.0133301	0.0211769	1.58865	10.0001	0.779219	848.649	121.59	71.3277	7.80202e-5
0.0138034	0.0216688	1.56982	10.0001	0.799842	855.522	121.29	70.6021	7.79253e-5
0.0141348	0.0223955	1.58442	10.0001	0.826412	862.288	121.09	70.4291	7.78123e-5
0.0146566	0.0229924	1.56874	10.0001	0.851837	869.133	120.81	69.7496	7.78028e-5
0.0150158	0.0233348	1.55401	10.0001	0.871505	876.160	120.68	69.2460	7.81634e-5
0.0151461	0.0242090	1.59837	10.0001	0.898938	882.954	120.45	69.6642	7.79326e-5
0.0156546	0.0244686	1.56303	10.0001	0.917440	889.828	120.10	68.8194	7.82499e-5
0.0160676	0.0253186	1.57576	10.0001	0.944612	896.522	119.94	68.6550	7.77761e-5
0.0162752	0.0260234	1.59896	10.0001	0.973686	903.397	119.65	68.7852	7.80715e-5
0.0166886	0.0270442	1.62052	10.0001	1.00714	910.250	119.41	68.7541	7.76942e-5
0.0171546	0.0278001	1.62056	10.0001	1.03990	917.065	119.20	68.4464	7.78748e-5
0.0175067	0.0285597	1.63136	10.0001	1.07047	923.840	119.00	68.3563	7.79841e-5
0.0178234	0.0292654	1.64196	10.0001	1.09893	930.750	118.87	68.2931	7.80853e-5
0.0188941	0.0300589	1.59091	10.0001	1.13072	937.454	118.55	67.0618	7.75358e-5
0.0187753	0.0310971	1.65628	10.0001	1.17294	944.290	118.35	67.9399	7.82432e-5
0.0192496	0.0321080	1.66799	10.0001	1.20500	951.071	118.10	67.8407	7.77949e-5
0.0196676	0.0326760	1.66141	10.0001	1.23404	957.947	117.87	67.5607	7.81318e-5
0.0202156	0.0335819	1.66119	10.0001	1.26642	964.715	117.63	67.3074	7.78727e-5
0.0207499	0.0348421	1.67914	10.0001	1.31191	971.410	117.44	67.2969	7.77459e-5
0.0212770	0.0355273	1.66975	10.0001	1.34667	978.199	117.15	66.9689	7.80894e-5
0.0217076	0.0373811	1.72203	10.0001	1.40254	984.999	116.96	67.4333	7.75486e-5
0.0227260	0.0381027	1.67661	10.0001	1.44419	991.805	116.75	66.5180	7.78092e-5
0.0228401	0.0393505	1.72287	10.0001	1.49091	998.657	116.50	67.0444	7.80868e-5
0.0238409	0.0399161	1.67427	10.0001	1.51942	1005.57	116.35	66.1232	7.78976e-5
0.0242125	0.0415901	1.71771	10.0001	1.57525	1012.62	116.01	66.5508	7.77723e-5
0.0249208	0.0434142	1.74209	10.0001	1.63778	1019.62	115.78	66.6434	7.75219e-5
0.0255412	0.0440469	1.72454	10.0001	1.67996	1026.44	115.54	66.2638	7.81514e-5
0.0259284	0.0458223	1.76726	10.0001	1.73501	1033.32	115.39	66.6768	7.78240e-5
0.0269015	0.0468584	1.74185	10.0001	1.78178	1040.05	115.18	66.1362	7.78327e-5
0.0271994	0.0482667	1.77455	10.0001	1.83562	1046.92	114.90	66.4597	7.80387e-5
0.0283757	0.0507475	1.78841	10.0001	1.91111	1053.73	114.74	66.3685	7.72179e-5
0.0292170	0.0525128	1.79733	10.0001	1.99045	1060.60	114.45	66.3059	7.76915e-5
0.0301704	0.0537074	1.78013	10.0001	2.04674	1067.43	114.26	65.9227	7.78758e-5
0.0307113	0.0561836	1.82941	10.0001	2.12674	1074.21	113.96	66.4056	7.76490e-5
0.0314906	0.0575146	1.82640	10.0001	2.18920	1081.07	113.80	66.2401	7.79820e-5
0.0318865	0.0601457	1.88624	10.0001	2.27165	1088.03	113.56	66.8508	7.77330e-5
0.0337790	0.0618474	1.83094	10.0001	2.34706	1094.81	113.26	65.9446	7.75694e-5
0.0343486	0.0640662	1.86518	10.0001	2.43466	1101.69	113.08	66.2589	7.78629e-5
0.0354051	0.0662944	1.87246	10.0001	2.51569	1108.59	112.86	66.2035	7.77189e-5
0.0360821	0.0690667	1.91415	10.0001	2.61358	1115.30	112.64	66.5829	7.77218e-5
0.0373329	0.0711923	1.90696	10.0001	2.69728	1122.23	112.36	66.3602	7.77013e-5
0.0383037	0.0727625	1.89962	10.0001	2.77106	1129.03	112.14	66.1722	7.79760e-5
0.0391780	0.0754798	1.92659	10.0001	2.86215	1135.90	111.95	66.3794	7.77666e-5
0.0403367	0.0779129	1.93156	10.0001	2.95746	1142.66	111.78	66.3206	7.78077e-5
0.0413359	0.0809249	1.95774	10.0001	3.06311	1149.44	111.46	66.5117	7.77019e-5
0.0424006	0.0835966	1.97159	10.0001	3.16635	1156.31	111.18	66.5674	7.77950e-5
0.0443091	0.0870136	1.96378	10.0001	3.28524	1163.24	111.01	66.3302	7.73985e-5
0.0457117	0.0910397	1.99161	10.0001	3.43567	1170.08	110.74	66.5216	7.74808e-5
0.0469354	0.0936670	1.99566	10.0001	3.55284	1177.01	110.53	66.4791	7.78540e-5
0.0478037	0.0975692	2.04104	10.0001	3.68121	1184.88	110.32	66.8898	7.76780e-5
0.0497601	0.102192	2.05369	10.0001	3.83854	1191.95	110.05	66.8970	7.73318e-5
0.0505426	0.105714	2.09158	10.0001	3.99008	1198.78	109.85	67.2277	7.79002e-5
0.0520322	0.111409	2.14115	10.0001	4.16285	1205.51	109.67	67.6221	7.73335e-5
0.0522606	0.113556	2.17289	10.0001	4.27540	1212.38	109.37	67.9058	7.80864e-5
0.0549618	0.118915	2.16359	10.0001	4.43155	1219.18	109.18	67.6879	7.71663e-5
0.0561800	0.122547	2.18132	10.0001	4.60294	1225.99	108.93	67.7971	7.78534e-5
0.0575797	0.127565	2.21545	10.0001	4.76939	1232.90	108.68	68.0466	7.76221e-5
0.0607162	0.132446	2.18140	10.0001	4.95424	1239.70	108.49	67.6125	7.74210e-5
0.0637562	0.138021	2.16483	10.0001	5.16280	1246.44	108.24	67.3488	7.72765e-5
0.0635307	0.146324	2.30321	10.0001	5.44968	1253.35	108.01	68.5895	7.76066e-5
0.0667535	0.150781	2.25877	10.0001	5.63464	1260.13	107.76	68.1053	7.76266e-5
0.0684794	0.156783	2.28949	10.0001	5.85247	1266.98	107.63	68.3207	7.76416e-5
0.0698903	0.164139	2.34852	10.0001	6.09839	1273.80	107.35	68.7779	7.75294e-5
0.0726527	0.171026	2.35402	10.0001	6.34676	1280.65	107.16	68.7516	7.74173e-5
0.0760230	0.177860	2.33955	10.0001	6.60534	1287.50	106.86	68.5520	7.73814e-5
0.0777197	0.182580	2.34921	10.0001	6.82611	1294.16	106.70	68.5943	7.79138e-5
0.0790322	0.193392	2.44700	10.0001	7.14531	1300.92	106.42	69.3490	7.74006e-5
0.0829622	0.202904	2.44574	10.0001	7.47695	1307.81	106.18	69.2629	7.71477e-5
0.0894197	0.210341	2.35228	10.0001	7.78784	1314.73	105.97	68.3995	7.70638e-5
0.0897714	0.219027	2.43983	10.0001	8.15201	1321.40	105.72	69.1005	7.78405e-5
0.0899730	0.226495	2.51736	10.0001	8.41175	1328.31	105.52	69.6872	7.79662e-5
0.0949421	0.236192	2.48775	10.0001	8.70353	1335.18	105.31	69.3927	7.72101e-5
0.0994042	0.249134	2.50628	10.0001	9.15588	1342.00	105.03	69.4732	7.70461e-5
0.101890	0.258061	2.53275	10.0001	9.54924	1348.75	104.86	69.6395	7.76595e-5
0.107911	0.272851	2.52848	10.0001	9.99661	1355.47	104.59	69.5401	7.68435e-5
0.110640	0.284755	2.57371	10.0001	10.5023	1362.46	104.44	69.8422	7.75050e-5
0.112270	0.295087	2.62837	10.0001	10.8982	1369.22	104.18	70.2123	7.77935e-5
0.122051	0.315443	2.58453	10.0001	11.4688	1376.06	103.92	69.8164	7.63878e-5
0.124828	0.331169	2.65300	10.0001	12.1651	1382.98	103.72	70.2744	7.74047e-5
0.128734	0.346240	2.68959	10.0001	12.6978	1389.71	103.48	70.4932	7.73789e-5
0.133431	0.362384	2.71590	10.0001	13.2603	1396.62	103.23	70.6358	7.72947e-5
0.137231	0.376598	2.74425	10.0001	13.8112	1403.59	103.01	70.7965	7.75271e-5
0.146567	0.396516	2.70537	10.0001	14.4316	1410.45	102.74	70.4866	7.68065e-5
0.151050	0.418067	2.76773	10.0001	15.2432	1417.25	102.58	70.8697	7.71177e-5
0.157538	0.436882	2.77319	10.0001	15.9551	1424.10	102.38	70.8727	7.72392e-5
0.158567	0.457669	2.88627	10.0001	16.7150	1430.89	102.12	71.5647	7.75663e-5
0.168874	0.479125	2.83717	10.0001	17.4185	1437.60	101.86	71.2240	7.70550e-5
0.174091	0.505822	2.90551	10.0001	18.3468	1444.28	101.63	71.6148	7.70579e-5
0.183097	0.525196	2.86841	10.0001	19.1282	1451.07	101.43	71.3614	7.72618e-5
0.191995	0.547826	2.85333	10.0001	19.9505	1457.88	101.22	71.2408	7.72025e-5
0.190267	0.573199	3.01260	10.0001	20.9147	1464.74	100.98	72.1712	7.77720e-5
0.206962	0.605889	2.92754	10.0001	21.8050	1471.60	100.80	71.6403	7.64654e-5
0.215193	0.644025	2.99278	10.0001	23.2404	1478.43	100.49	71.9928	7.68401e-5
0.223417	0.679961	3.04346	10.0001	24.5450	1485.27	100.25	72.2538	7.69745e-5
0.231066	0.708494	3.06620	10.0001	25.6842	1492.10	100.13	72.3604	7.73525e-5
0.250072	0.739462	2.95699	10.0001	26.7306	1498.89	99.85	71.7156	7.68573e-5
0.262605	0.793577	3.02194	10.0001	28.4678	1506.90	99.55	72.0602	7.64221e-5
0.276161	0.831813	3.01206	10.0001	30.0793	1513.13	99.31	71.9838	7.70035e-5
0.294950	0.873826	2.96263	10.0001	31.5491	1519.99	99.09	71.6769	7.67508e-5
0.289240	0.921792	3.18695	10.0001	33.4163	1526.77	98.88	72.8915	7.75790e-5
0.311228	0.970837	3.11938	10.0001	34.8206	1533.70	98.75	72.5166	7.65977e-5
0.330435	1.01267	3.06467	10.0001	36.5851	1540.68	98.47	72.2033	7.70265e-5
0.346887	1.07651	3.10335	10.0001	38.6330	1547.50	98.19	72.3935	7.65956e-5
0.373143	1.14107	3.05799	10.0001	40.8932	1554.48	97.97	72.1255	7.63891e-5
0.382501	1.19977	3.13664	10.0001	43.3119	1561.24	97.75	72.5360	7.71193e-5
0.408003	1.25679	3.08035	10.0001	45.2704	1568.00	97.59	72.2182	7.68196e-5
0.421667	1.32082	3.13238	10.0001	47.6363	1574.84	97.27	72.4839	7.70345e-5
0.447913	1.39362	3.11137	10.0001	50.0066	1581.65	97.09	72.3558	7.65834e-5
0.481144	1.48054	3.07712	10.0001	52.9682	1588.48	96.90	72.1527	7.62744e-5
0.502830	1.55635	3.09519	10.0001	56.0809	1595.32	96.62	72.2376	7.68620e-5
0.522090	1.62643	3.11523	10.0001	58.7475	1602.15	96.49	72.3340	7.70849e-5
0.561186	1.71859	3.06243	10.0001	61.5946	1609.05	96.22	72.0320	7.63604e-5
0.591948	1.81896	3.07283	10.0001	65.3136	1615.87	95.87	72.0750	7.65333e-5
0.610506	1.91774	3.14123	10.0001	69.0326	1622.62	95.75	72.4304	7.68757e-5
0.649114	2.01030	3.09699	10.0001	72.2748	1629.48	95.51	72.1822	7.66795e-5
0.676376	2.10689	3.11497	10.0001	75.9258	1636.38	95.27	72.2679	7.69040e-5
0.721737	2.24725	3.11367	10.0001	80.1603	1643.26	95.00	72.2456	7.61111e-5
0.776903	2.37260	3.05391	10.0001	84.9712	1650.04	94.81	71.9067	7.62788e-5
0.807915	2.48812	3.07969	10.0001	89.7352	1656.91	94.55	72.0378	7.68798e-5
0.863890	2.64871	3.06602	10.0001	94.5678	1663.77	94.38	71.9484	7.60738e-5
0.913931	2.81282	3.07772	10.0001	100.630	1670.52	94.10	71.9989	7.62524e-5
0.977912	2.97347	3.04063	10.0001	106.526	1677.44	93.85	71.7808	7.62764e-5
1.02626	3.11778	3.03800	10.0001	112.331	1684.12	93.63	71.7552	7.67052e-5
1.08451	3.28909	3.03278	10.0001	118.049	1691.00	93.47	71.7135	7.63935e-5
1.14103	3.45886	3.03135	10.0001	124.351	1697.81	93.22	71.6938	7.65219e-5
1.21601	3.65670	3.00713	10.0001	131.063	1704.65	92.93	71.5433	7.62342e-5
1.29857	3.87871	2.98690	10.0001	138.826	1711.41	92.73	71.4130	7.60702e-5
1.36677	4.09475	2.99592	10.0001	147.055	1718.12	92.50	71.4519	7.63601e-5
1.46101	4.32475	2.96011	10.0001	155.048	1724.94	92.27	71.2303	7.61352e-5
1.54654	4.57627	2.95905	10.0001	164.137	1731.77	92.05	71.2097	7.61744e-5
1.64918	4.84717	2.93914	10.0001	173.541	1738.66	91.90	71.0770	7.59809e-5
1.76628	5.16620	2.92490	10.0001	184.447	1745.53	91.60	70.9748	7.57332e-5
1.89648	5.46086	2.87947	10.0001	195.829	1752.31	91.37	70.6831	7.59594e-5
1.99966	5.74397	2.87247	10.0001	207.042	1759.03	91.12	70.6254	7.63346e-5
2.14079	6.11581	2.85680	10.0001	218.776	1766.02	90.92	70.5093	7.57095e-5
2.27289	6.44769	2.83678	10.0001	232.048	1772.74	90.75	70.3670	7.61164e-5
2.40428	6.79311	2.82542	10.0001	244.731	1779.52	90.50	70.2782	7.61648e-5
2.54039	7.14453	2.81238	10.0001	257.692	1786.25	90.26	70.1780	7.62236e-5
2.72214	7.56498	2.77905	10.0001	271.675	1792.96	90.04	69.9417	7.58052e-5
2.90319	8.01510	2.76079	10.0001	287.986	1799.92	89.79	69.8002	7.57840e-5
3.09078	8.48220	2.74435	10.0001	305.100	1806.70	89.60	69.6692	7.58284e-5
3.34869	9.07739	2.71073	10.0001	324.035	1813.54	89.31	69.4142	7.51618e-5
3.62595	9.71730	2.67993	10.0001	347.166	1821.60	89.13	69.1722	7.51269e-5
3.82963	10.2277	2.67068	10.0001	369.997	1828.32	88.87	69.0849	7.60542e-5
4.08322	10.7701	2.63765	10.0001	389.258	1835.32	88.67	68.8259	7.58763e-5
4.37343	11.4365	2.61500	10.0001	411.504	1842.01	88.35	68.6327	7.54796e-5
4.72571	12.2159	2.58498	10.0001	437.962	1848.87	88.14	68.3776	7.51102e-5
5.01330	12.9000	2.57315	10.0001	466.715	1855.67	87.96	68.2599	7.57705e-5
5.36706	13.6162	2.53700	10.0001	492.506	1862.50	87.77	67.9542	7.56188e-5
5.73222	14.3920	2.51073	10.0001	520.691	1869.46	87.47	67.7172	7.55499e-5
6.17891	15.3200	2.47939	10.0001	551.584	1876.29	87.22	67.4298	7.50880e-5
6.64956	16.3234	2.45481	10.0001	587.476	1883.00	87.02	67.1891	7.49820e-5
7.12863	17.2503	2.41987	10.0001	624.693	1889.81	86.82	66.8619	7.53074e-5
7.62643	18.2434	2.39213	10.0001	661.052	1896.82	86.58	66.5866	7.52495e-5
8.28172	19.5521	2.36088	10.0001	701.560	1903.54	86.35	66.2631	7.43981e-5
8.97984	20.8873	2.32602	10.0001	751.572	1910.47	86.06	65.9006	7.44874e-5
9.60282	21.9784	2.28874	10.0001	801.604	1917.32	85.97	65.5179	7.53347e-5
10.2149	23.0985	2.26126	10.0001	844.934	1924.20	85.69	65.2172	7.54436e-5
10.9605	24.4801	2.23349	10.0001	889.925	1931.08	85.43	64.8978	7.48602e-5
11.9254	26.2072	2.19760	10.0001	945.308	1937.79	85.19	64.4796	7.41343e-5
12.9458	27.9987	2.16276	10.0001	1013.12	1944.67	84.97	64.0597	7.42073e-5
13.8717	29.4673	2.12428	10.0001	1081.76	1951.44	84.75	63.6062	7.50937e-5
14.7527	30.9169	2.09567	10.0001	1140.73	1958.36	84.61	63.2471	7.53373e-5
15.8866	32.7719	2.06286	10.0001	1200.08	1965.13	84.27	62.8194	7.46172e-5
17.1295	34.7245	2.02717	10.0001	1274.19	1971.92	84.04	62.3465	7.45870e-5
18.4974	36.7779	1.98828	10.0001	1352.81	1978.76	83.86	61.8213	7.45522e-5
20.0338	39.0459	1.94900	10.0001	1436.77	1985.64	83.60	61.2693	7.43597e-5
21.4306	41.0964	1.91765	10.0001	1528.35	1992.46	83.35	60.8088	7.49780e-5
22.9086	43.0915	1.88102	10.0001	1611.58	1999.16	83.17	60.2741	7.51591e-5
24.6717	45.5889	1.84782	10.0001	1696.01	2006.07	82.93	59.7505	7.45657e-5
26.5523	47.9858	1.80722	10.0001	1798.16	2012.91	82.68	59.1202	7.48266e-5
28.3771	50.5538	1.78150	10.0001	1899.57	2019.76	82.47	58.6703	7.48815e-5
30.6838	53.3634	1.73914	10.0001	2004.84	2026.62	82.24	57.9685	7.45547e-5
32.8234	56.0499	1.70762	10.0001	2124.32	2033.53	82.04	57.4090	7.49777e-5
35.2517	58.8774	1.67020	10.0001	2237.60	2040.39	81.83	56.7432	7.48851e-5
37.8560	61.9229	1.63575	10.0001	2359.82	2047.20	81.57	56.0971	7.48148e-5
40.5105	64.8522	1.60088	10.0001	2490.34	2053.48	81.37	55.4330	7.50872e-5
44.3082	69.1777	1.56128	10.0001	2620.77	2060.36	81.08	54.6199	7.37559e-5
48.0246	73.0152	1.52037	10.0001	2805.71	2067.10	80.94	53.7799	7.44141e-5
51.1888	76.1806	1.48823	10.0001	2974.80	2074.00	80.73	53.0970	7.53029e-5
54.3504	79.2398	1.45794	10.0001	3116.60	2080.79	80.43	52.4359	7.55318e-5
58.0492	82.9267	1.42856	10.0001	3255.98	2087.71	80.20	51.7530	7.51076e-5
62.6595	86.9896	1.38829	10.0001	3420.84	2094.48	79.96	50.8308	7.47508e-5
67.2656	91.1702	1.35538	10.0001	3610.71	2101.19	79.78	50.0239	7.48998e-5
71.8191	95.0382	1.32330	10.0001	3802.39	2108.05	79.54	49.2273	7.52730e-5
77.4944	99.8631	1.28865	10.0001	3985.67	2114.92	79.28	48.3212	7.46610e-5
82.9970	104.205	1.25552	10.0001	4210.84	2121.75	79.07	47.4428	7.51276e-5
88.4635	108.425	1.22564	10.0001	4419.85	2128.65	78.82	46.6221	7.53758e-5
94.3540	112.620	1.19358	10.0001	4624.66	2135.35	78.64	45.7322	7.54221e-5
100.467	117.086	1.16542	10.0001	4835.25	2142.14	78.45	44.9048	7.54129e-5
106.923	121.406	1.13545	10.0001	5055.39	2149.11	78.17	44.0216	7.55346e-5
114.116	126.375	1.10742	10.0001	5277.48	2156.08	77.96	43.1450	7.52939e-5
121.684	130.977	1.07637	10.0001	5525.97	2162.91	77.74	42.1846	7.54788e-5
129.694	135.712	1.04640	10.0001	5771.95	2170.02	77.46	41.2269	7.55009e-5
137.587	140.329	1.01992	10.0001	6026.76	2176.67	77.25	40.3479	7.57042e-5
145.935	144.951	0.993258	10.0001	6275.35	2183.55	76.98	39.4471	7.57431e-5
153.972	148.997	0.967687	10.0001	6530.29	2190.42	76.78	38.5794	7.60729e-5
162.990	153.623	0.942528	10.0001	6766.08	2197.21	76.60	37.6888	7.58550e-5
172.961	158.460	0.916161	10.0001	7030.41	2204.00	76.43	36.7389	7.57567e-5
183.547	163.351	0.889973	10.0001	7314.43	2210.94	76.13	35.7750	7.57670e-5
194.496	167.933	0.863427	10.0001	7608.11	2217.67	75.84	34.7929	7.59051e-5
205.074	172.320	0.840279	10.0001	7899.60	2224.48	75.62	33.9087	7.61239e-5
215.875	176.417	0.817221	10.0001	8178.08	2231.39	75.45	33.0220	7.62382e-5
227.071	180.465	0.794752	10.0001	8453.11	2238.25	75.20	32.1431	7.62817e-5
239.482	184.893	0.772053	10.0001	8732.41	2244.99	74.98	31.2320	7.61414e-5
252.189	188.617	0.747918	10.0001	9037.31	2251.85	74.70	30.2770	7.63043e-5
264.912	192.486	0.726602	10.0001	9332.84	2258.66	74.49	29.4037	7.63803e-5
277.624	195.830	0.705380	10.0001	9628.30	2265.47	74.31	28.5364	7.65365e-5
290.749	199.422	0.685891	10.0001	9912.20	2272.39	74.03	27.7150	7.65325e-5
304.650	202.596	0.665012	10.0001	10204.9	2279.23	73.81	26.8426	7.65610e-5
318.771	205.741	0.645420	10.0001	10502.0	2286.02	73.63	26.0093	7.66198e-5
332.844	207.862	0.624503	10.0001	10799.6	2292.74	73.32	25.1409	7.68025e-5
346.867	210.931	0.608104	10.0001	11079.0	2299.71	73.09	24.4149	7.67819e-5
360.702	212.590	0.589379	10.0001	11367.7	2306.71	72.89	23.6259	7.69981e-5
373.657	214.968	0.575309	10.0001	11631.7	2313.53	72.75	22.9977	7.70859e-5
387.372	216.268	0.558295	10.0001	11887.2	2320.43	72.48	22.2714	7.71382e-5
401.709	217.860	0.542334	10.0001	12140.4	2327.20	72.33	21.5734	7.70896e-5
416.894	219.557	0.526648	10.0001	12405.6	2333.95	71.97	20.8792	7.70496e-5
433.027	220.118	0.508324	10.0001	12684.1	2340.85	71.73	20.0939	7.70863e-5
448.580	221.387	0.493528	10.0001	12962.6	2347.76	71.50	19.4346	7.71465e-5
463.557	221.891	0.478671	10.0001	13236.5	2354.53	71.30	18.7851	7.72920e-5
477.800	222.336	0.465333	10.0001	13490.2	2361.33	71.15	18.1979	7.74025e-5
492.308	222.206	0.451355	10.0001	13729.4	2368.13	70.95	17.5912	7.74441e-5
509.264	222.520	0.436943	10.0001	13965.6	2374.97	70.66	16.9513	7.72401e-5
526.668	222.275	0.422039	10.0001	14243.2	2381.85	70.35	16.2974	7.72766e-5
541.922	221.801	0.409286	10.0001	14519.6	2388.66	70.18	15.7395	7.75051e-5
556.144	220.903	0.397205	10.0001	14757.4	2395.48	69.95	15.2171	7.76365e-5
570.090	220.088	0.386059	10.0001	14973.8	2402.23	69.85	14.7316	7.76731e-5

[step]
Temperature ramp - 2
Storage modulus	Loss modulus	Tan(delta)	Angular frequency	Oscillation torque	Step time	Temperature	Raw phase	Oscillation displacement
MPa	MPa		rad/s	µN.m	s	°C	°	rad
557.416	220.020	0.394713	10.0001	15133.0	6.19462	70.21	15.1232	7.95425e-5
543.256	219.645	0.404311	10.0001	14979.3	13.1673	70.53	15.5617	7.99398e-5
523.451	220.522	0.421284	10.0001	14751.5	19.9626	70.97	16.3010	8.04031e-5
504.199	220.374	0.437077	10.0001	14443.6	26.7531	71.15	17.0038	8.04596e-5
487.672	220.396	0.451935	10.0001	14132.6	33.6266	71.32	17.6565	8.02523e-5
472.812	220.109	0.465532	10.0001	13863.7	40.4042	71.51	18.2561	8.01498e-5
456.482	219.378	0.480585	10.0001	13615.9	47.1700	71.73	18.9252	8.03660e-5
438.722	218.268	0.497509	10.0001	13337.2	53.9902	72.01	19.6770	8.05851e-5
421.115	217.248	0.515889	10.0001	13027.8	60.9142	72.21	20.4821	8.06314e-5
404.133	215.660	0.533636	10.0001	12719.3	67.6411	72.49	21.2654	8.06724e-5
387.026	213.925	0.552740	10.0001	12410.7	74.4714	72.65	22.1007	8.07659e-5
369.563	211.584	0.572525	10.0001	12095.0	81.9520	72.93	22.9699	8.09384e-5
350.633	208.625	0.594997	10.0001	11761.6	89.1122	73.21	23.9518	8.12565e-5
335.146	205.877	0.614290	10.0001	11392.0	95.9550	73.41	24.7909	8.09142e-5
319.779	203.088	0.635090	10.0001	11080.7	102.652	73.58	25.6807	8.09990e-5
305.134	200.093	0.655756	10.0001	10768.3	109.537	73.82	26.5582	8.10124e-5
290.385	196.505	0.676706	10.0001	10461.6	116.358	74.10	27.4517	8.11882e-5
275.543	192.565	0.698856	10.0001	10141.2	123.208	74.33	28.3883	8.13571e-5
261.584	189.026	0.722622	10.0001	9810.31	130.078	74.58	29.3580	8.12725e-5
248.490	184.978	0.744408	10.0001	9498.71	137.020	74.71	30.2581	8.13284e-5
236.039	180.890	0.766359	10.0001	9191.60	143.956	74.98	31.1519	8.13442e-5
223.500	177.013	0.792004	10.0001	8891.83	150.721	75.31	32.1530	8.14347e-5
211.589	172.145	0.813583	10.0001	8591.69	157.531	75.52	33.0302	8.16186e-5
200.552	168.224	0.838806	10.0001	8283.33	164.342	75.65	33.9868	8.14288e-5
189.700	163.814	0.863543	10.0001	8004.73	171.099	75.87	34.9252	8.16051e-5
179.175	159.125	0.888100	10.0001	7718.19	178.113	76.15	35.8510	8.17328e-5
168.173	154.313	0.917583	10.0001	7429.58	184.807	76.37	36.9159	8.20099e-5
158.380	149.423	0.943445	10.0001	7127.55	193.140	76.61	37.8533	8.19364e-5
148.233	144.599	0.975490	10.0001	6843.39	200.004	76.88	38.9508	8.21633e-5
138.704	139.261	1.00402	10.0001	6551.90	206.850	77.13	39.9406	8.23410e-5
129.797	134.259	1.03438	10.0001	6259.08	213.677	77.33	40.9505	8.23009e-5
121.934	129.574	1.06265	10.0001	5982.90	220.569	77.49	41.8717	8.21259e-5
113.947	124.786	1.09512	10.0001	5730.45	227.360	77.74	42.8855	8.23619e-5
106.254	119.769	1.12720	10.0001	5471.81	234.204	78.08	43.8735	8.25557e-5
99.2242	114.846	1.15744	10.0001	5211.79	241.028	78.24	44.7916	8.25490e-5
92.7451	110.422	1.19059	10.0001	4964.51	247.858	78.44	45.7407	8.23924e-5
86.8207	105.697	1.21742	10.0001	4737.87	254.624	78.69	46.5324	8.25452e-5
81.2209	101.644	1.25145	10.0001	4513.72	261.381	78.95	47.4455	8.23399e-5
76.0198	97.5722	1.28351	10.0001	4309.77	268.304	79.10	48.2947	8.24062e-5
70.7249	93.2964	1.31915	10.0001	4111.39	275.146	79.34	49.2053	8.27426e-5
65.7605	88.9752	1.35302	10.0001	3905.59	282.001	79.63	50.0585	8.28798e-5
61.0881	84.7472	1.38730	10.0001	3703.64	289.571	79.90	50.8951	8.29454e-5
56.4186	80.4238	1.42548	10.0001	3508.01	296.685	80.04	51.7894	8.32738e-5
52.2689	76.4767	1.46314	10.0001	3309.82	303.376	80.29	52.6352	8.30768e-5
48.6580	72.8076	1.49632	10.0001	3130.14	310.264	80.59	53.3684	8.28838e-5
45.3441	69.4337	1.53126	10.0001	2966.78	317.106	80.75	54.1043	8.27669e-5
42.4005	66.3963	1.56593	10.0001	2816.31	323.913	80.98	54.8038	8.25274e-5
39.4928	63.0113	1.59551	10.0001	2679.66	330.740	81.20	55.4179	8.30116e-5
36.9001	60.3098	1.63441	10.0001	2536.15	337.645	81.45	56.1389	8.24799e-5
34.5286	57.5181	1.66581	10.0001	2414.79	343.816	81.62	56.7298	8.26240e-5
31.9533	54.4674	1.70460	10.0001	2293.90	350.596	81.92	57.4267	8.32198e-5
29.5869	51.5963	1.74389	10.0001	2162.88	357.423	82.06	58.1053	8.31767e-5
27.4436	48.8785	1.78106	10.0001	2040.28	364.332	82.32	58.7301	8.31166e-5
25.4968	46.2895	1.81550	10.0001	1925.54	371.009	82.59	59.2980	8.30863e-5
23.7308	43.9719	1.85295	10.0001	1817.54	377.807	82.80	59.8808	8.28351e-5
21.9891	41.5161	1.88804	10.0001	1719.63	384.693	83.02	60.4250	8.32544e-5
20.3553	39.2029	1.92593	10.0001	1618.69	391.548	83.26	60.9851	8.32509e-5
18.8463	36.9981	1.96315	10.0001	1523.21	398.396	83.47	61.5191	8.32468e-5
17.5452	35.1041	2.00078	10.0001	1433.40	405.267	83.65	62.0321	8.28027e-5
16.1893	33.0254	2.03995	10.0001	1354.47	412.009	83.95	62.5572	8.34035e-5
14.9930	31.0933	2.07385	10.0001	1270.36	418.929	84.14	63.0063	8.32789e-5
13.7852	29.2098	2.11893	10.0001	1192.46	427.151	84.53	63.5609	8.34599e-5
12.9156	27.7269	2.14678	10.0001	1117.65	433.967	84.57	63.9086	8.25627e-5
12.0495	26.2608	2.17941	10.0001	1058.22	440.763	84.90	64.2972	8.26958e-5
11.2124	24.8258	2.21413	10.0001	999.587	447.553	85.14	64.6971	8.28068e-5
10.4933	23.5699	2.24619	10.0001	943.013	454.437	85.36	65.0559	8.24431e-5
9.76577	22.2194	2.27524	10.0001	892.306	461.205	85.57	65.3833	8.28673e-5
9.02206	20.8650	2.31267	10.0001	838.702	468.098	85.78	65.7815	8.31273e-5
8.41838	19.7096	2.34125	10.0001	786.253	474.945	86.01	66.0844	8.26231e-5
7.80818	18.5913	2.38101	10.0001	740.971	481.820	86.24	66.4770	8.27196e-5
7.27833	17.5260	2.40796	10.0001	696.771	488.525	86.55	66.7504	8.26077e-5
6.77893	16.5264	2.43790	10.0001	655.458	495.365	86.70	67.0419	8.25492e-5
6.36536	15.6511	2.45879	10.0001	617.267	502.303	86.90	67.2495	8.21565e-5
5.93208	14.7988	2.49470	10.0001	583.588	509.084	87.19	67.5737	8.22939e-5
5.51768	13.9348	2.52547	10.0001	549.662	515.973	87.46	67.8515	8.24111e-5
5.11785	13.0743	2.55465	10.0001	515.842	522.772	87.63	68.1124	8.25444e-5
4.74638	12.2608	2.58320	10.0001	482.599	529.491	87.85	68.3623	8.24479e-5
4.42891	11.5581	2.60969	10.0001	452.553	536.469	88.06	68.5886	8.21108e-5
4.17291	10.9925	2.63426	10.0001	427.259	543.370	88.26	68.7918	8.15915e-5
3.88551	10.3659	2.66783	10.0001	404.707	550.049	88.53	69.0587	8.20664e-5
3.60478	9.71881	2.69609	10.0001	379.963	556.973	88.81	69.2847	8.22653e-5
3.36087	9.13770	2.71885	10.0001	356.133	563.694	89.01	69.4671	8.20832e-5
3.15309	8.64938	2.74314	10.0001	335.325	570.567	89.14	69.6536	8.17322e-5
2.95227	8.16134	2.76443	10.0001	316.553	577.403	89.44	69.8178	8.18309e-5
2.77417	7.73408	2.78790	10.0001	298.843	584.196	89.68	69.9918	8.15930e-5
2.61076	7.30710	2.79884	10.0001	282.492	591.081	89.95	70.0829	8.16546e-5
2.45182	6.92441	2.82419	10.0001	267.090	597.879	90.16	70.2641	8.15427e-5
2.27240	6.50300	2.86173	10.0001	251.839	604.669	90.34	70.5212	8.19805e-5
2.13162	6.13212	2.87674	10.0001	236.388	611.555	90.58	70.6325	8.16485e-5
2.00022	5.79939	2.89938	10.0001	223.118	618.375	90.78	70.7880	8.15486e-5
1.89845	5.54543	2.92104	10.0001	211.726	624.659	90.98	70.9319	8.09817e-5
1.78695	5.25405	2.94023	10.0001	201.477	631.407	91.24	71.0618	8.13926e-5
1.66910	4.92206	2.94893	10.0001	189.760	638.487	91.44	71.1310	8.18486e-5
1.55690	4.63510	2.97713	10.0001	178.110	645.227	91.70	71.3121	8.16514e-5
1.48187	4.42362	2.98516	10.0001	168.432	652.164	91.99	71.3705	8.09215e-5
1.39803	4.20311	3.00646	10.0001	160.384	658.919	92.20	71.5058	8.11512e-5
1.32264	4.00685	3.02944	10.0001	152.466	665.622	92.38	71.6479	8.09845e-5
1.24747	3.77773	3.02832	10.0001	144.498	672.263	92.62	71.6558	8.13974e-5
1.15966	3.54585	3.05766	10.0001	135.958	679.094	92.85	71.8349	8.16781e-5
1.09375	3.33840	3.05227	10.0001	127.579	685.890	93.04	71.8190	8.13926e-5
1.01508	3.14803	3.10126	10.0001	120.237	692.770	93.36	72.1011	8.14660e-5
0.962620	3.00477	3.12145	10.0001	113.797	699.566	93.47	72.2203	8.08333e-5
0.917931	2.85872	3.11430	10.0001	108.323	706.381	93.68	72.1935	8.08534e-5
0.874251	2.72079	3.11213	10.0001	103.079	713.192	93.95	72.1932	8.08325e-5
0.816791	2.55768	3.13137	10.0001	97.5954	719.993	94.23	72.3101	8.14518e-5
0.769947	2.39545	3.11119	10.0001	91.3719	726.776	94.41	72.2175	8.13952e-5
0.729441	2.26300	3.10238	10.0001	86.0227	733.712	94.64	72.1832	8.10784e-5
0.683080	2.14939	3.14662	10.0001	81.5355	740.557	94.87	72.4313	8.10212e-5
0.651642	2.04069	3.13161	10.0001	77.2247	747.381	95.12	72.3643	8.07906e-5
0.614391	1.93481	3.14915	10.0001	73.3590	754.021	95.32	72.4700	8.09910e-5
0.571555	1.82806	3.19839	10.0001	69.3604	760.928	95.58	72.7394	8.11536e-5
0.539346	1.75896	3.26128	10.0001	66.0816	767.662	95.81	73.0650	8.04942e-5
0.521798	1.65418	3.17015	10.0001	62.5647	774.563	95.99	72.6195	8.08547e-5
0.496416	1.57035	3.16338	10.0001	59.3334	781.386	96.25	72.5981	8.07532e-5
0.470256	1.48757	3.16333	10.0001	56.2355	788.080	96.48	72.6126	8.07986e-5
0.446471	1.41936	3.17905	10.0001	53.5049	795.006	96.64	72.7075	8.06097e-5
0.415371	1.33565	3.21555	10.0001	50.6731	801.878	96.98	72.9120	8.11992e-5
0.401752	1.26002	3.13631	10.0001	47.5934	808.642	97.18	72.5189	8.06842e-5
0.373255	1.19884	3.21184	10.0001	45.3120	815.475	97.47	72.9264	8.08985e-5
0.357511	1.12620	3.15012	10.0001	42.5925	822.335	97.63	72.6277	8.08286e-5
0.341746	1.05877	3.09811	10.0001	40.1543	829.103	97.88	72.3708	8.09350e-5
0.326880	1.02174	3.12575	10.0001	38.3657	836.051	98.08	72.5321	8.02025e-5
0.317526	0.968336	3.04963	10.0001	36.5475	842.911	98.30	72.1360	8.04348e-5
0.300305	0.917932	3.05667	10.0001	34.7598	849.863	98.53	72.1955	8.07264e-5
0.283037	0.866863	3.06272	10.0001	32.8778	856.743	98.78	72.2518	8.08794e-5
0.268424	0.827993	3.08465	10.0001	31.2264	863.457	98.99	72.3915	8.04815e-5
0.253700	0.784046	3.09045	10.0001	29.6501	870.287	99.23	72.4468	8.07269e-5
0.235824	0.750113	3.18082	10.0001	28.2558	877.447	99.45	72.9471	8.06223e-5
0.232602	0.708838	3.04743	10.0001	26.6846	884.158	99.66	72.2557	8.02759e-5
0.219746	0.669264	3.04562	10.0001	25.3518	890.999	99.88	72.2739	8.07793e-5
0.207559	0.630581	3.03808	10.0001	23.9078	897.822	100.15	72.2625	8.08418e-5
0.201159	0.607310	3.01905	10.0001	22.7965	904.687	100.36	72.1751	7.99948e-5
0.193717	0.579777	2.99291	10.0001	21.8543	911.473	100.52	72.0512	8.02774e-5
0.189400	0.550031	2.90407	10.0001	20.7971	918.346	100.83	71.5535	8.02990e-5
0.177898	0.524594	2.94884	10.0001	19.8542	925.121	101.02	71.8528	8.05168e-5
0.170669	0.497211	2.91330	10.0001	18.8260	931.968	101.25	71.6735	8.04625e-5
0.164918	0.475675	2.88431	10.0001	17.9558	938.701	101.42	71.5254	8.01508e-5
0.153952	0.457088	2.96904	10.0001	17.2753	945.692	101.70	72.0651	8.04977e-5
0.149847	0.427222	2.85105	10.0001	16.2299	952.883	101.95	71.3949	8.06008e-5
0.145506	0.411962	2.83123	10.0001	15.5252	959.631	102.25	71.2966	7.98966e-5
0.141671	0.391001	2.75993	10.0001	14.8301	966.427	102.46	70.8708	8.02179e-5
0.134329	0.377366	2.80927	10.0001	14.2683	973.192	102.63	71.2268	8.01351e-5
0.125957	0.356912	2.83359	10.0001	13.5747	980.006	102.94	71.4330	8.07049e-5
0.122667	0.339504	2.76768	10.0001	12.8573	986.865	103.15	71.0476	8.01794e-5
0.116773	0.323499	2.77033	10.0001	12.2762	993.684	103.27	71.1121	8.03754e-5
0.112669	0.309332	2.74550	10.0001	11.7173	1000.57	103.54	70.9901	8.01726e-5
0.108088	0.294853	2.72790	10.0001	11.1865	1007.41	103.82	70.9206	8.02648e-5
0.106077	0.278407	2.62457	10.0001	10.6011	1014.17	104.03	70.2486	8.02190e-5
0.101239	0.268017	2.64735	10.0001	10.1885	1021.00	104.18	70.4594	8.01908e-5
0.101216	0.254167	2.51114	10.0001	9.68468	1027.92	104.44	69.4870	7.98819e-5
0.0959003	0.245244	2.55728	10.0001	9.34791	1034.71	104.78	69.8941	8.01203e-5
0.0909867	0.236175	2.59571	10.0001	8.98498	1041.51	104.85	70.2367	8.01473e-5
0.0897600	0.224111	2.49678	10.0001	8.54939	1048.51	105.13	69.5369	8.00035e-5
0.0844831	0.214921	2.54396	10.0001	8.21082	1055.17	105.42	69.9714	8.03441e-5
0.0818297	0.205940	2.51669	10.0001	7.84332	1061.93	105.58	69.8198	8.00163e-5
0.0805471	0.195151	2.42282	10.0001	7.46219	1068.89	105.87	69.1299	7.99763e-5
0.0785359	0.187767	2.39085	10.0001	7.17755	1075.59	106.06	68.9166	7.98365e-5
0.0749211	0.179707	2.39862	10.0001	6.89410	1082.41	106.23	69.0583	8.02012e-5
0.0735405	0.174075	2.36707	10.0001	6.64069	1089.43	106.46	68.8367	7.96346e-5
0.0715210	0.165236	2.31031	10.0001	6.36211	1096.14	106.73	68.4156	8.01447e-5
0.0683616	0.160568	2.34880	10.0001	6.14584	1102.90	107.00	68.8222	7.98899e-5
0.0656689	0.152284	2.31897	10.0001	5.86420	1109.82	107.14	68.6540	8.02849e-5
0.0640417	0.147701	2.30632	10.0001	5.64887	1116.62	107.37	68.5992	7.97057e-5
0.0619324	0.142511	2.30107	10.0001	5.46136	1123.35	107.61	68.6259	7.98800e-5
0.0601739	0.135117	2.24545	10.0001	5.21063	1130.24	107.83	68.2103	8.01534e-5
0.0592495	0.129343	2.18302	10.0001	4.98575	1137.01	108.16	67.6836	7.98059e-5
0.0557707	0.123659	2.21727	10.0001	4.78057	1143.89	108.39	68.1401	8.03025e-5
0.0546057	0.118875	2.17697	10.0001	4.57796	1150.67	108.58	67.8282	7.98226e-5
0.0532537	0.114065	2.14191	10.0001	4.40319	1157.98	108.79	67.5670	7.98631e-5
0.0505991	0.110373	2.18132	10.0001	4.25415	1164.84	108.99	68.0707	8.00322e-5
0.0512535	0.105964	2.06745	10.0001	4.08198	1171.63	109.26	66.9496	7.93405e-5
0.0479142	0.102838	2.14630	10.0001	3.97701	1178.50	109.56	67.9044	8.02013e-5
0.0458755	0.0972753	2.12042	10.0001	3.77201	1185.22	109.74	67.7939	8.03557e-5
0.0451656	0.0931100	2.06153	10.0001	3.59829	1192.03	109.96	67.2738	7.97847e-5
0.0446754	0.0901201	2.01722	10.0001	3.48076	1198.99	110.13	66.8628	7.94922e-5
0.0431145	0.0878549	2.03771	10.0001	3.39504	1205.76	110.34	67.1910	7.97305e-5
0.0413408	0.0847143	2.04917	10.0001	3.27573	1212.58	110.65	67.4521	7.99351e-5
0.0393219	0.0813407	2.06859	10.0001	3.14557	1219.37	110.90	67.8245	8.01487e-5
0.0393055	0.0776234	1.97487	10.0001	3.00277	1226.18	111.13	66.8826	7.96270e-5
0.0376661	0.0763977	2.02829	10.0001	2.93812	1233.05	111.19	67.5949	7.95848e-5
0.0368512	0.0733920	1.99158	10.0001	2.83504	1239.85	111.54	67.3124	7.97684e-5
0.0356502	0.0706593	1.98202	10.0001	2.73352	1246.71	111.81	67.3532	7.99120e-5
0.0349710	0.0682084	1.95043	10.0001	2.63382	1253.50	111.97	67.1081	7.96218e-5
0.0338059	0.0655358	1.93859	10.0001	2.53782	1260.36	112.22	67.1353	7.98599e-5
0.0328197	0.0637087	1.94117	10.0001	2.45813	1267.21	112.44	67.3006	7.96723e-5
0.0318607	0.0615057	1.93045	10.0001	2.37584	1274.20	112.67	67.3305	7.97800e-5
0.0312322	0.0592208	1.89615	10.0001	2.28962	1281.12	112.86	67.0626	7.96912e-5
0.0299456	0.0564177	1.88401	10.0001	2.19291	1287.93	113.12	67.1496	8.01726e-5
0.0292513	0.0549906	1.87994	10.0001	2.11852	1294.80	113.35	67.2319	7.95085e-5
0.0288589	0.0531123	1.84041	10.0001	2.05306	1301.70	113.62	66.8696	7.95601e-5
0.0276954	0.0508915	1.83754	10.0001	1.97364	1308.36	113.78	67.0749	7.99454e-5
0.0272989	0.0499532	1.82986	10.0001	1.92063	1315.16	114.04	67.0748	7.92600e-5
0.0266265	0.0479466	1.80071	10.0001	1.85887	1322.01	114.26	66.8959	7.98083e-5
0.0261585	0.0464503	1.77572	10.0001	1.79838	1328.84	114.47	66.7187	7.95962e-5
0.0250489	0.0452555	1.80669	10.0001	1.74765	1335.67	114.76	67.3584	7.97740e-5
0.0244669	0.0430650	1.76014	10.0001	1.67124	1342.55	114.94	66.9837	7.99440e-5
0.0237542	0.0417439	1.75733	10.0001	1.61297	1349.36	115.16	67.1601	7.97027e-5
0.0233910	0.0404489	1.72925	10.0001	1.56204	1356.13	115.45	66.9414	7.95295e-5
0.0226633	0.0387498	1.70980	10.0001	1.50331	1362.97	115.59	66.9478	7.99065e-5
0.0216497	0.0379886	1.75469	10.0001	1.46108	1369.88	115.81	67.8337	7.97237e-5
0.0210861	0.0367344	1.74212	10.0001	1.41269	1376.99	116.08	67.9047	7.97593e-5
0.0205026	0.0357725	1.74478	10.0001	1.36976	1383.86	116.34	68.1699	7.95562e-5
0.0204768	0.0343864	1.67928	10.0001	1.32231	1390.65	116.52	67.4139	7.94676e-5
0.0199569	0.0339208	1.69970	10.0001	1.29776	1397.49	116.76	67.8852	7.93300e-5
0.0193180	0.0329309	1.70468	10.0001	1.26241	1404.40	117.00	68.2404	7.96937e-5
0.0186365	0.0317940	1.70600	10.0001	1.21691	1411.17	117.25	68.5950	7.97618e-5
0.0182765	0.0309264	1.69214	10.0001	1.17990	1417.95	117.49	68.6259	7.95131e-5
0.0178894	0.0297884	1.66514	10.0001	1.13945	1424.83	117.72	68.5293	7.96707e-5
0.0174067	0.0291664	1.67559	10.0001	1.10973	1431.68	117.89	68.9361	7.94710e-5
0.0169411	0.0286116	1.68889	10.0001	1.08513	1438.45	118.12	69.3767	7.94485e-5
0.0167815	0.0275052	1.63903	10.0001	1.04819	1445.32	118.35	68.9087	7.95748e-5
0.0160775	0.0270758	1.68408	10.0001	1.02508	1452.15	118.57	69.9076	7.95786e-5
0.0159860	0.0261883	1.63821	10.0001	0.992118	1459.02	118.85	69.4603	7.94077e-5
0.0153683	0.0254913	1.65870	10.0001	0.964848	1465.85	119.05	70.1659	7.96934e-5
0.0150201	0.0246496	1.64110	10.0001	0.931944	1472.72	119.31	70.2571	7.96469e-5
0.0147761	0.0239980	1.62411	10.0001	0.904961	1479.53	119.48	70.2785	7.94498e-5
0.0144363	0.0235933	1.63431	10.0001	0.886477	1486.41	119.74	70.6988	7.93686e-5
0.0143270	0.0227800	1.59001	10.0001	0.858900	1493.29	119.92	70.3082	7.94629e-5
0.0137154	0.0221476	1.61480	10.0001	0.834216	1500.13	120.25	71.1953	7.98059e-5
0.0133021	0.0215480	1.61989	10.0001	0.807465	1506.89	120.40	71.6954	7.96308e-5
0.0130652	0.0208938	1.59920	10.0001	0.781841	1513.83	120.71	71.7442	7.95301e-5
0.0125792	0.0201513	1.60196	10.0001	0.755037	1520.61	120.91	72.3644	7.99116e-5
0.0124336	0.0198702	1.59811	10.0001	0.737090	1527.47	121.07	72.5140	7.91922e-5
0.0120447	0.0193440	1.60602	10.0001	0.719341	1534.20	121.32	73.1156	7.96383e-5
0.0115303	0.0188238	1.63255	10.0001	0.697951	1541.07	121.52	74.1160	7.98216e-5
0.0114788	0.0182530	1.59015	10.0001	0.673444	1547.93	121.86	73.7909	7.92813e-5
0.0110935	0.0177987	1.60443	10.0001	0.656797	1554.69	122.07	74.5468	7.95984e-5
0.0109466	0.0172025	1.57149	10.0001	0.634563	1561.53	122.20	74.4943	7.95609e-5
0.0107006	0.0169340	1.58253	10.0001	0.621016	1568.35	122.49	75.0316	7.92873e-5
0.0103715	0.0164735	1.58834	10.0001	0.604648	1575.22	122.73	75.7030	7.96018e-5
0.0101597	0.0162740	1.60182	10.0001	0.593139	1581.99	122.90	76.2373	7.92318e-5
9.89328e-3	0.0158091	1.59797	10.0001	0.577571	1588.77	123.14	76.7595	7.95924e-5
9.66021e-3	0.0153790	1.59199	10.0001	0.560450	1595.59	123.38	77.2266	7.95452e-5
9.55399e-3	0.0150167	1.57178	10.0001	0.545472	1602.38	123.61	77.3159	7.93210e-5
9.27153e-3	0.0146006	1.57477	10.0001	0.531127	1609.22	123.81	78.0207	7.96428e-5
8.97300e-3	0.0142219	1.58496	10.0001	0.515765	1615.99	124.07	78.8653	7.96414e-5
8.81211e-3	0.0138372	1.57025	10.0001	0.500100	1622.91	124.32	79.2048	7.94584e-5
8.53312e-3	0.0135584	1.58891	10.0001	0.488902	1629.69	124.51	80.1286	7.95110e-5
8.26555e-3	0.0131894	1.59571	10.0001	0.475134	1636.60	124.74	80.9859	7.96243e-5
8.19590e-3	0.0129438	1.57930	10.0001	0.463377	1643.49	125.01	81.1211	7.91643e-5
7.93541e-3	0.0123796	1.56005	10.0001	0.446608	1652.20	125.30	81.9004	7.99358e-5
7.56285e-3	0.0122133	1.61491	10.0001	0.436821	1659.05	125.51	83.5120	7.95384e-5
7.43082e-3	0.0117769	1.58487	10.0001	0.421344	1665.85	125.72	83.9054	7.96165e-5
7.29946e-3	0.0114743	1.57194	10.0001	0.409159	1672.66	125.99	84.3951	7.94225e-5
7.09244e-3	0.0112042	1.57974	10.0001	0.399381	1679.55	126.16	85.3133	7.95149e-5
6.99921e-3	0.0110940	1.58504	10.0001	0.392878	1686.34	126.36	85.7478	7.90493e-5
6.82492e-3	0.0108468	1.58930	10.0001	0.385687	1693.23	126.61	86.5651	7.94408e-5
6.57697e-3	0.0105769	1.60817	10.0001	0.376578	1700.03	126.81	87.8212	7.96386e-5
6.53699e-3	0.0103053	1.57646	10.0001	0.365462	1706.84	127.12	87.9828	7.93259e-5
6.33162e-3	0.0100614	1.58908	10.0001	0.357543	1713.64	127.26	89.1041	7.95307e-5
6.17883e-3	9.82075e-3	1.58942	10.0001	0.348669	1720.43	127.50	89.9718	7.94634e-5
6.05350e-3	9.66099e-3	1.59593	10.0001	0.342284	1727.25	127.73	90.7148	7.92926e-5
5.87621e-3	9.40587e-3	1.60067	10.0001	0.334320	1734.11	128.10	91.8133	7.95139e-5
5.74350e-3	9.13034e-3	1.58968	10.0001	0.324676	1740.93	128.23	92.6987	7.95006e-5
5.57594e-3	8.93667e-3	1.60272	10.0001	0.317711	1747.74	128.40	93.8285	7.93932e-5
5.50681e-3	8.83570e-3	1.60451	10.0001	0.313016	1754.88	128.69	94.3152	7.90601e-5
5.33432e-3	8.53317e-3	1.59967	10.0001	0.305101	1761.52	128.89	95.6205	7.96425e-5
5.21069e-3	8.40218e-3	1.61249	10.0001	0.299300	1768.29	129.18	96.5404	7.92094e-5
5.06281e-3	8.21875e-3	1.62336	10.0001	0.294111	1775.14	129.31	97.7045	7.93803e-5
4.99995e-3	8.00441e-3	1.60090	10.0001	0.286552	1782.07	129.55	98.3427	7.92746e-5
4.88243e-3	7.82693e-3	1.60308	10.0001	0.281084	1788.93	129.82	99.3698	7.93057e-5
4.73016e-3	7.66918e-3	1.62133	10.0001	0.276574	1795.73	130.07	100.660	7.93196e-5
4.59420e-3	7.46122e-3	1.62405	10.0001	0.270641	1802.49	130.35	101.954	7.94237e-5
4.47117e-3	7.30104e-3	1.63292	10.0001	0.265663	1809.26	130.52	103.129	7.93125e-5
4.42260e-3	7.14219e-3	1.61493	10.0001	0.260168	1816.15	130.73	103.775	7.91803e-5
4.25074e-3	6.97613e-3	1.64116	10.0001	0.256736	1822.93	130.93	105.418	7.94137e-5
4.22386e-3	6.83641e-3	1.61852	10.0001	0.251235	1829.77	131.20	105.918	7.90928e-5
4.07918e-3	6.67822e-3	1.63715	10.0001	0.248130	1836.66	131.47	107.419	7.93520e-5
3.93795e-3	6.48953e-3	1.64795	10.0001	0.243466	1843.36	131.58	109.014	7.93914e-5
3.87663e-3	6.33537e-3	1.63425	10.0001	0.238332	1850.30	131.88	109.931	7.91536e-5
3.78480e-3	6.30264e-3	1.66525	10.0001	0.237978	1857.08	132.16	110.756	7.90179e-5
3.74725e-3	6.12876e-3	1.63553	10.0001	0.233276	1864.04	132.30	111.600	7.92057e-5
3.61096e-3	6.06852e-3	1.68058	10.0001	0.232791	1870.88	132.62	112.895	7.90907e-5
3.52978e-3	5.86332e-3	1.66110	10.0001	0.227979	1877.79	132.86	114.267	7.93243e-5
3.45935e-3	5.79147e-3	1.67415	10.0001	0.225926	1884.51	133.03	115.115	7.90583e-5
3.40975e-3	5.65001e-3	1.65702	10.0001	0.222411	1891.37	133.21	116.071	7.91425e-5
3.38081e-3	5.58522e-3	1.65204	10.0001	0.220213	1898.21	133.42	116.570	7.89266e-5
3.24163e-3	5.41751e-3	1.67123	10.0001	0.218334	1905.12	133.71	118.425	7.93262e-5
3.14638e-3	5.26108e-3	1.67211	10.0001	0.215092	1912.05	134.01	119.918	7.93091e-5
3.08644e-3	5.18885e-3	1.68118	10.0001	0.213201	1918.91	134.13	120.752	7.90282e-5
2.99091e-3	5.03742e-3	1.68424	10.0001	0.210955	1925.74	134.43	122.288	7.92362e-5
2.93244e-3	4.92225e-3	1.67855	10.0001	0.208384	1932.53	134.55	123.368	7.91354e-5
2.84364e-3	4.83082e-3	1.69882	10.0001	0.207365	1939.29	134.79	124.583	7.91000e-5
2.80364e-3	4.73568e-3	1.68911	10.0001	0.205236	1945.63	135.05	125.438	7.90272e-5
2.74995e-3	4.65248e-3	1.69184	10.0001	0.203968	1952.48	135.24	126.354	7.90294e-5
2.69734e-3	4.51079e-3	1.67231	10.0001	0.201473	1959.25	135.50	127.624	7.91792e-5
2.61835e-3	4.46836e-3	1.70656	10.0001	0.201539	1966.08	135.65	128.514	7.89941e-5
2.53789e-3	4.37195e-3	1.72267	10.0001	0.200951	1972.87	136.00	129.747	7.90931e-5
2.51343e-3	4.26441e-3	1.69665	10.0001	0.198463	1979.65	136.23	130.640	7.90363e-5
2.40946e-3	4.11007e-3	1.70581	10.0001	0.197542	1986.47	136.42	132.483	7.93251e-5
2.37494e-3	4.04643e-3	1.70380	10.0001	0.195775	1993.35	136.64	133.195	7.89463e-5
2.34593e-3	3.98252e-3	1.69763	10.0001	0.194775	2000.18	136.83	133.866	7.89170e-5
2.30133e-3	3.94681e-3	1.71501	10.0001	0.195021	2006.99	137.05	134.458	7.89398e-5
2.24400e-3	3.83704e-3	1.70991	10.0001	0.194110	2013.81	137.35	135.687	7.90994e-5
2.16860e-3	3.71795e-3	1.71445	10.0001	0.193335	2020.67	137.54	137.131	7.91792e-5
2.18664e-3	3.69800e-3	1.69118	10.0001	0.191313	2027.52	137.82	137.153	7.87365e-5
2.05366e-3	3.56154e-3	1.73424	10.0001	0.193108	2034.30	137.99	139.160	7.93588e-5
2.04613e-3	3.56705e-3	1.74331	10.0001	0.192071	2041.09	138.17	139.169	7.87983e-5
1.99251e-3	3.47428e-3	1.74367	10.0001	0.192047	2047.98	138.42	140.274	7.90639e-5
1.98101e-3	3.38860e-3	1.71054	10.0001	0.190101	2054.71	138.68	141.056	7.89227e-5
1.88167e-3	3.30539e-3	1.75662	10.0001	0.191638	2061.68	138.86	142.404	7.91728e-5
1.87004e-3	3.25684e-3	1.74159	10.0001	0.190213	2068.42	139.19	142.879	7.88769e-5
1.86076e-3	3.19325e-3	1.71610	10.0001	0.189159	2075.27	139.44	143.480	7.88883e-5
1.81361e-3	3.13775e-3	1.73011	10.0001	0.189554	2082.13	139.62	144.257	7.89745e-5
1.81344e-3	3.06243e-3	1.68874	10.0001	0.187937	2088.81	139.82	144.919	7.89405e-5
1.76253e-3	3.04779e-3	1.72921	10.0001	0.188961	2095.48	139.99	145.363	7.88765e-5
1.68824e-3	2.98307e-3	1.76697	10.0001	0.190284	2102.32	140.23	146.373	7.90569e-5
1.64886e-3	2.93545e-3	1.78030	10.0001	0.190220	2109.12	140.52	147.030	7.89314e-5
1.64329e-3	2.91264e-3	1.77244	10.0001	0.189613	2115.95	140.74	147.265	7.87920e-5
1.61508e-3	2.81896e-3	1.74540	10.0001	0.189171	2122.87	141.03	148.269	7.89911e-5
1.58985e-3	2.76866e-3	1.74146	10.0001	0.188773	2129.62	141.11	148.870	7.88942e-5
1.53379e-3	2.69649e-3	1.75805	10.0001	0.189579	2136.38	141.38	149.839	7.90620e-5
1.49004e-3	2.60314e-3	1.74704	10.0001	0.189266	2143.28	141.61	150.938	7.90505e-5
1.50125e-3	2.57508e-3	1.71529	10.0001	0.187720	2150.08	141.91	151.137	7.87489e-5
1.43409e-3	2.55789e-3	1.78363	10.0001	0.189892	2156.83	142.10	151.646	7.89096e-5
1.40524e-3	2.51498e-3	1.78971	10.0001	0.190057	2163.71	142.31	152.192	7.89012e-5
1.37420e-3	2.47090e-3	1.79807	10.0001	0.190310	2170.46	142.58	152.760	7.89014e-5
1.38851e-3	2.47225e-3	1.78051	10.0001	0.189355	2177.21	142.73	152.681	7.86817e-5
1.36080e-3	2.40913e-3	1.77037	10.0001	0.189684	2184.08	142.93	153.410	7.88759e-5
1.32697e-3	2.34710e-3	1.76876	10.0001	0.189946	2190.88	143.26	154.163	7.89414e-5
1.29733e-3	2.31021e-3	1.78073	10.0001	0.190200	2197.80	143.48	154.648	7.88893e-5
1.25409e-3	2.29140e-3	1.82715	10.0001	0.191311	2204.61	143.63	155.027	7.88943e-5
1.23171e-3	2.23032e-3	1.81075	10.0001	0.191305	2211.44	143.98	155.710	7.89665e-5
1.23276e-3	2.16259e-3	1.75427	10.0001	0.190158	2218.29	144.10	156.363	7.89071e-5
1.19265e-3	2.16096e-3	1.81190	10.0001	0.191233	2225.12	144.33	156.549	7.88252e-5
1.17867e-3	2.11843e-3	1.79731	10.0001	0.191176	2231.94	144.64	157.020	7.88586e-5
1.14576e-3	2.07307e-3	1.80934	10.0001	0.191626	2238.68	144.85	157.593	7.88576e-5
1.12553e-3	2.02737e-3	1.80126	10.0001	0.191738	2245.51	145.06	158.119	7.88817e-5
1.10964e-3	1.97732e-3	1.78194	10.0001	0.191548	2252.37	145.33	158.670	7.88569e-5
1.06036e-3	1.99893e-3	1.88515	10.0001	0.193295	2259.13	145.54	158.649	7.87963e-5
1.06497e-3	1.92294e-3	1.80562	10.0001	0.192386	2266.75	145.70	159.378	7.88781e-5
1.10358e-3	1.83044e-3	1.65865	10.0001	0.189989	2273.89	145.97	160.150	7.88816e-5
1.02627e-3	1.85904e-3	1.81146	10.0001	0.192909	2280.73	146.20	160.144	7.88876e-5
9.70072e-4	1.84758e-3	1.90458	10.0001	0.194546	2287.54	146.43	160.453	7.88508e-5
9.97107e-4	1.80090e-3	1.80612	10.0001	0.192927	2294.59	146.64	160.819	7.87792e-5
9.81828e-4	1.72009e-3	1.75193	10.0001	0.192897	2301.37	146.94	161.672	7.89324e-5
9.99562e-4	1.74572e-3	1.74648	10.0001	0.191823	2308.30	147.13	161.359	7.86177e-5
9.54923e-4	1.69204e-3	1.77191	10.0001	0.193550	2314.96	147.35	162.039	7.89565e-5
8.94929e-4	1.68374e-3	1.88142	10.0001	0.195356	2321.60	147.57	162.308	7.89093e-5
9.26162e-4	1.62883e-3	1.75869	10.0001	0.193488	2328.40	147.80	162.757	7.88124e-5
8.81460e-4	1.61592e-3	1.83323	10.0001	0.195037	2335.21	147.99	163.022	7.88845e-5
8.79213e-4	1.59118e-3	1.80977	10.0001	0.194594	2342.10	148.25	163.273	7.87770e-5
8.65377e-4	1.55843e-3	1.80087	10.0001	0.194872	2348.91	148.45	163.640	7.88332e-5
8.62594e-4	1.55161e-3	1.79877	10.0001	0.194756	2355.74	148.75	163.714	7.87759e-5
8.49920e-4	1.49853e-3	1.76314	10.0001	0.194901	2362.55	149.02	164.280	7.88693e-5
8.24082e-4	1.46017e-3	1.77187	10.0001	0.195457	2369.36	149.13	164.733	7.88856e-5
7.99362e-4	1.45779e-3	1.82369	10.0001	0.196098	2376.09	149.37	164.824	7.88141e-5
7.68717e-4	1.42459e-3	1.85321	10.0001	0.197084	2382.79	149.62	165.236	7.89119e-5
7.91659e-4	1.40755e-3	1.77798	10.0001	0.195586	2389.68	149.82	165.344	7.86856e-5
7.93822e-4	1.44657e-3	1.82229	10.0001	0.195721	2396.49	150.12	164.950	7.86283e-5
7.61597e-4	1.34633e-3	1.76777	10.0001	0.196938	2403.30	150.21	166.032	7.90305e-5

[step]
Temperature ramp - 3
Storage modulus	Loss modulus	Tan(delta)	Angular frequency	Oscillation torque	Step time	Temperature	Raw phase	Oscillation displacement
MPa	MPa		rad/s	µN.m	s	°C	°	rad
1.00773e-3	1.52902e-3	1.51729	10.0001	0.540880	6.17843	149.79	163.513	2.24690e-4
1.03377e-3	1.56408e-3	1.51299	10.0001	0.538949	12.9931	149.42	163.077	2.24506e-4
1.06766e-3	1.59809e-3	1.49681	10.0001	0.536545	19.7687	149.05	162.624	2.24438e-4
1.09571e-3	1.64168e-3	1.49829	10.0001	0.535198	26.5239	148.87	162.086	2.24442e-4
1.12716e-3	1.68867e-3	1.49817	10.0001	0.533616	33.4320	148.68	161.500	2.24418e-4
1.14226e-3	1.70769e-3	1.49502	10.0001	0.533442	40.1696	148.48	161.254	2.24692e-4
1.18830e-3	1.75330e-3	1.47547	10.0001	0.529651	47.0155	148.15	160.627	2.24303e-4
1.19336e-3	1.79247e-3	1.50204	10.0001	0.531279	53.8856	148.01	160.207	2.24638e-4
1.23666e-3	1.83907e-3	1.48713	10.0001	0.527892	60.6190	147.77	159.570	2.24251e-4
1.24975e-3	1.87367e-3	1.49923	10.0001	0.528759	67.3353	147.62	159.166	2.24623e-4
1.29200e-3	1.92560e-3	1.49040	10.0001	0.525875	74.2746	147.29	158.473	2.24275e-4
1.32068e-3	1.95008e-3	1.47657	10.0001	0.524744	81.0554	147.12	158.109	2.24545e-4
1.36571e-3	2.01829e-3	1.47783	10.0001	0.522213	87.9134	146.86	157.229	2.24136e-4
1.37527e-3	2.05878e-3	1.49700	10.0001	0.524046	94.7486	146.70	156.778	2.24622e-4
1.42372e-3	2.09654e-3	1.47258	10.0001	0.520300	101.525	146.38	156.185	2.24276e-4
1.44081e-3	2.15679e-3	1.49693	10.0001	0.521541	108.360	146.17	155.505	2.24417e-4
1.49341e-3	2.21994e-3	1.48649	10.0001	0.518773	115.229	145.91	154.627	2.24135e-4
1.51920e-3	2.26091e-3	1.48822	10.0001	0.519003	122.142	145.70	154.097	2.24473e-4
1.53743e-3	2.30173e-3	1.49713	10.0001	0.519513	128.904	145.50	153.603	2.24622e-4
1.58282e-3	2.35154e-3	1.48567	10.0001	0.517178	135.618	145.28	152.878	2.24400e-4
1.60208e-3	2.39809e-3	1.49686	10.0001	0.517843	142.497	145.04	152.322	2.24500e-4
1.65708e-3	2.44442e-3	1.47514	10.0001	0.514515	149.299	144.87	151.579	2.24219e-4
1.67373e-3	2.49050e-3	1.48800	10.0001	0.515899	156.111	144.66	151.040	2.24493e-4
1.70960e-3	2.53213e-3	1.48112	10.0001	0.514662	162.988	144.45	150.432	2.24435e-4
1.75761e-3	2.60328e-3	1.48115	10.0001	0.513322	169.933	144.15	149.480	2.24109e-4
1.79235e-3	2.65250e-3	1.47990	10.0001	0.513578	176.707	143.89	148.810	2.24421e-4
1.82448e-3	2.71168e-3	1.48628	10.0001	0.513781	183.652	143.62	148.058	2.24351e-4
1.85369e-3	2.75712e-3	1.48737	10.0001	0.513960	190.411	143.52	147.457	2.24449e-4
1.88378e-3	2.81192e-3	1.49270	10.0001	0.514093	197.288	143.25	146.758	2.24311e-4
1.92255e-3	2.87041e-3	1.49302	10.0001	0.514060	204.068	143.01	145.973	2.24292e-4
1.97111e-3	2.92651e-3	1.48470	10.0001	0.513120	210.942	142.78	145.149	2.24246e-4
2.01208e-3	2.98766e-3	1.48486	10.0001	0.513401	217.654	142.53	144.328	2.24287e-4
2.05816e-3	3.04306e-3	1.47854	10.0001	0.512913	224.486	142.31	143.523	2.24276e-4
2.09307e-3	3.09029e-3	1.47644	10.0001	0.513161	231.430	142.12	142.863	2.24369e-4
2.13043e-3	3.14659e-3	1.47698	10.0001	0.513560	238.238	141.93	142.111	2.24341e-4
2.16664e-3	3.23552e-3	1.49334	10.0001	0.515755	244.991	141.65	141.082	2.24124e-4
2.20826e-3	3.28027e-3	1.48545	10.0001	0.515888	251.773	141.38	140.407	2.24354e-4
2.26347e-3	3.35311e-3	1.48140	10.0001	0.515812	258.727	141.15	139.387	2.24114e-4
2.31002e-3	3.42677e-3	1.48344	10.0001	0.517248	265.522	140.96	138.434	2.24160e-4
2.38902e-3	3.50965e-3	1.46907	10.0001	0.516377	272.399	140.65	137.163	2.23906e-4
2.43083e-3	3.57491e-3	1.47065	10.0001	0.518621	279.168	140.49	136.318	2.24258e-4
2.45928e-3	3.65213e-3	1.48504	10.0001	0.521855	285.834	140.27	135.489	2.24215e-4
2.51363e-3	3.70378e-3	1.47348	10.0001	0.521760	292.541	140.12	134.658	2.24256e-4
2.54590e-3	3.78663e-3	1.48734	10.0001	0.525393	299.507	139.88	133.779	2.24236e-4
2.60689e-3	3.86096e-3	1.48106	10.0001	0.526327	306.352	139.53	132.735	2.24104e-4
2.65850e-3	3.94798e-3	1.48504	10.0001	0.529251	313.132	139.40	131.683	2.24079e-4
2.71554e-3	4.01387e-3	1.47811	10.0001	0.530630	320.009	139.14	130.750	2.24156e-4
2.76692e-3	4.10227e-3	1.48261	10.0001	0.533889	326.711	138.98	129.708	2.24078e-4
2.81007e-3	4.19338e-3	1.49227	10.0001	0.538114	333.616	138.71	128.739	2.24039e-4
2.89547e-3	4.27783e-3	1.47742	10.0001	0.539078	340.474	138.45	127.466	2.23863e-4
2.95046e-3	4.37900e-3	1.48418	10.0001	0.544078	347.319	138.20	126.356	2.23948e-4
2.99718e-3	4.45131e-3	1.48517	10.0001	0.547706	354.191	137.97	125.521	2.24171e-4
3.06621e-3	4.52235e-3	1.47490	10.0001	0.549580	360.974	137.85	124.493	2.24159e-4
3.12757e-3	4.61495e-3	1.47557	10.0001	0.553450	367.743	137.57	123.429	2.24007e-4
3.18982e-3	4.72007e-3	1.47973	10.0001	0.558702	374.665	137.30	122.302	2.23926e-4
3.25273e-3	4.83067e-3	1.48511	10.0001	0.564791	381.493	137.12	121.157	2.23911e-4
3.33910e-3	4.93262e-3	1.47723	10.0001	0.568834	388.336	136.85	119.893	2.23794e-4
3.38832e-3	5.02543e-3	1.48316	10.0001	0.575288	395.146	136.73	119.000	2.24091e-4
3.46525e-3	5.14034e-3	1.48340	10.0001	0.580914	401.975	136.37	117.788	2.23771e-4
3.54390e-3	5.24629e-3	1.48037	10.0001	0.586978	408.742	136.20	116.628	2.23866e-4
3.62924e-3	5.36318e-3	1.47777	10.0001	0.593461	415.534	135.93	115.387	2.23762e-4
3.72159e-3	5.48726e-3	1.47444	10.0001	0.600576	422.413	135.65	114.085	2.23657e-4
3.81620e-3	5.58281e-3	1.46292	10.0001	0.606008	429.243	135.53	112.898	2.23815e-4
3.85990e-3	5.69822e-3	1.47626	10.0001	0.615511	436.051	135.29	112.104	2.24002e-4
3.93740e-3	5.79829e-3	1.47262	10.0001	0.621851	442.865	135.09	111.092	2.23950e-4
4.03275e-3	5.92403e-3	1.46898	10.0001	0.629397	449.693	134.76	109.876	2.23646e-4
4.12490e-3	6.06727e-3	1.47089	10.0001	0.639736	456.444	134.61	108.661	2.23586e-4
4.20988e-3	6.17798e-3	1.46750	10.0001	0.648322	463.335	134.40	107.639	2.23844e-4
4.30855e-3	6.32983e-3	1.46913	10.0001	0.659093	470.129	134.12	106.421	2.23545e-4
4.38194e-3	6.44944e-3	1.47182	10.0001	0.669405	476.987	133.90	105.532	2.23837e-4
4.46300e-3	6.55675e-3	1.46913	10.0001	0.677730	483.940	133.72	104.626	2.23854e-4
4.56762e-3	6.71065e-3	1.46918	10.0001	0.688913	490.838	133.46	103.463	2.23463e-4
4.69595e-3	6.90335e-3	1.47006	10.0001	0.703832	497.637	133.20	102.089	2.23151e-4
4.81465e-3	7.05803e-3	1.46595	10.0001	0.717536	504.495	132.94	100.906	2.23450e-4
4.89554e-3	7.17490e-3	1.46560	10.0001	0.729058	511.350	132.82	100.099	2.23885e-4
5.01038e-3	7.34370e-3	1.46570	10.0001	0.742021	518.161	132.56	99.0023	2.23358e-4
5.13919e-3	7.49833e-3	1.45905	10.0001	0.755435	525.032	132.31	97.8592	2.23381e-4
5.23240e-3	7.66712e-3	1.46531	10.0001	0.771434	531.726	132.03	97.0010	2.23517e-4
5.35045e-3	7.82463e-3	1.46242	10.0001	0.785547	538.627	131.84	96.0111	2.23480e-4
5.43647e-3	7.99127e-3	1.46994	10.0001	0.801584	545.397	131.66	95.2742	2.23564e-4
5.56998e-3	8.15554e-3	1.46419	10.0001	0.816232	552.271	131.42	94.2369	2.23400e-4
5.70977e-3	8.31348e-3	1.45601	10.0001	0.831013	559.058	131.14	93.1982	2.23392e-4
5.81457e-3	8.51281e-3	1.46405	10.0001	0.850225	565.838	130.94	92.4180	2.23345e-4
5.98374e-3	8.69491e-3	1.45309	10.0001	0.866761	572.731	130.67	91.2578	2.23087e-4
6.07468e-3	8.84602e-3	1.45621	10.0001	0.884229	579.462	130.53	90.6414	2.23701e-4
6.16664e-3	9.06792e-3	1.47048	10.0001	0.904756	586.297	130.25	90.0462	2.23316e-4
6.32729e-3	9.23499e-3	1.45955	10.0001	0.921437	593.138	130.07	89.0502	2.23297e-4
6.53860e-3	9.50286e-3	1.45335	10.0001	0.945459	599.810	129.85	87.8040	2.22527e-4
6.70778e-3	9.72846e-3	1.45032	10.0001	0.970404	606.813	129.56	86.8604	2.22930e-4
6.83455e-3	9.94143e-3	1.45459	10.0001	0.993591	613.786	129.33	86.2026	2.23230e-4
6.99983e-3	0.0101532	1.45049	10.0001	1.01572	620.648	129.09	85.3512	2.23181e-4
7.12201e-3	0.0103707	1.45615	10.0001	1.03905	627.465	128.96	84.7768	2.23315e-4
7.29183e-3	0.0106111	1.45521	10.0001	1.06278	634.247	128.63	83.9881	2.22952e-4
7.48788e-3	0.0108971	1.45530	10.0001	1.09197	641.029	128.41	83.1276	2.22692e-4
7.63656e-3	0.0111454	1.45947	10.0001	1.12053	647.894	128.24	82.5200	2.23081e-4
7.79668e-3	0.0113842	1.46013	10.0001	1.14623	654.656	128.00	81.8894	2.23115e-4
8.00285e-3	0.0116296	1.45318	10.0001	1.17289	661.527	127.75	81.0624	2.22988e-4
8.18668e-3	0.0119145	1.45536	10.0001	1.20339	668.428	127.49	80.4125	2.22913e-4
8.36752e-3	0.0121849	1.45621	10.0001	1.23321	675.155	127.32	79.7957	2.22951e-4
8.52790e-3	0.0124326	1.45788	10.0001	1.26197	682.062	127.06	79.2830	2.23261e-4
8.72274e-3	0.0127530	1.46204	10.0001	1.29530	688.854	126.84	78.7008	2.22948e-4
8.97478e-3	0.0131313	1.46313	10.0001	1.33434	695.694	126.54	77.9589	2.22427e-4
9.20199e-3	0.0134426	1.46084	10.0001	1.37209	702.611	126.34	77.3069	2.22884e-4
9.40777e-3	0.0137749	1.46421	10.0001	1.40911	709.514	126.17	76.7899	2.22916e-4
9.54925e-3	0.0140144	1.46759	10.0001	1.43945	716.247	125.97	76.4579	2.23496e-4
9.79851e-3	0.0143455	1.46405	10.0001	1.47320	723.116	125.77	75.8179	2.22825e-4
0.0100573	0.0147264	1.46426	10.0001	1.51517	729.929	125.45	75.2274	2.22673e-4
0.0103299	0.0151324	1.46492	10.0001	1.56033	736.839	125.28	74.6419	2.22535e-4
0.0105775	0.0154849	1.46395	10.0001	1.60386	743.658	125.03	74.1253	2.22983e-4
0.0107541	0.0158627	1.47504	10.0001	1.64609	750.459	124.79	73.8955	2.23158e-4
0.0110404	0.0162703	1.47370	10.0001	1.68966	757.241	124.56	73.3498	2.22716e-4
0.0113263	0.0166641	1.47127	10.0001	1.73649	764.076	124.31	72.8188	2.22829e-4
0.0115414	0.0170637	1.47848	10.0001	1.78237	770.820	124.17	72.5367	2.22994e-4
0.0117976	0.0175333	1.48618	10.0001	1.83231	777.693	123.87	72.2182	2.22750e-4
0.0121400	0.0180248	1.48475	10.0001	1.88746	784.493	123.69	71.6845	2.22487e-4
0.0124731	0.0185580	1.48785	10.0001	1.94727	791.341	123.36	71.2511	2.22395e-4
0.0127623	0.0189748	1.48679	10.0001	2.00166	798.280	123.21	70.8527	2.23060e-4
0.0130391	0.0194443	1.49123	10.0001	2.05381	805.107	123.00	70.5537	2.22936e-4
0.0133914	0.0199537	1.49004	10.0001	2.11069	811.879	122.76	70.1142	2.22645e-4
0.0136724	0.0204856	1.49832	10.0001	2.17216	818.837	122.50	69.8939	2.22847e-4
0.0139576	0.0209566	1.50145	10.0001	2.22839	825.663	122.34	69.6208	2.23062e-4
0.0142320	0.0215067	1.51115	10.0001	2.28736	832.553	122.04	69.4602	2.22925e-4
0.0146759	0.0220903	1.50521	10.0001	2.35228	839.569	121.81	68.9486	2.22424e-4
0.0150542	0.0227622	1.51202	10.0001	2.42812	846.342	121.56	68.6869	2.22428e-4
0.0153568	0.0233374	1.51968	10.0001	2.49877	853.219	121.39	68.5196	2.22990e-4
0.0157721	0.0239185	1.51651	10.0001	2.56429	860.040	121.12	68.1354	2.22716e-4
0.0160812	0.0245993	1.52970	10.0001	2.64012	866.867	120.98	68.0617	2.22811e-4
0.0164074	0.0253206	1.54324	10.0001	2.71805	873.658	120.64	67.9933	2.22769e-4
0.0168843	0.0261286	1.54751	10.0001	2.80425	880.534	120.38	67.7098	2.22265e-4
0.0173514	0.0268487	1.54735	10.0001	2.89128	887.376	120.19	67.3976	2.22540e-4
0.0177068	0.0275440	1.55556	10.0001	2.97300	894.144	120.03	67.2791	2.22826e-4
0.0181212	0.0282477	1.55883	10.0001	3.05243	900.912	119.73	67.0752	2.22796e-4
0.0185899	0.0291074	1.56576	10.0001	3.14496	908.560	119.54	66.8990	2.22464e-4
0.0190152	0.0299467	1.57489	10.0001	3.24029	915.368	119.32	66.7898	2.22595e-4
0.0195804	0.0307813	1.57205	10.0001	3.33648	922.238	119.11	66.4632	2.22409e-4
0.0200859	0.0318413	1.58525	10.0001	3.44851	929.036	118.77	66.3991	2.22169e-4
0.0205093	0.0326648	1.59268	10.0001	3.55210	935.864	118.63	66.3039	2.22874e-4
0.0211180	0.0336188	1.59195	10.0001	3.65501	942.714	118.38	66.0328	2.22355e-4
0.0214824	0.0346311	1.61207	10.0001	3.76794	949.554	118.16	66.1516	2.22741e-4
0.0220629	0.0356710	1.61678	10.0001	3.88117	956.417	117.88	65.9897	2.22481e-4
0.0227526	0.0369615	1.62450	10.0001	4.01692	963.209	117.63	65.8408	2.21950e-4
0.0233875	0.0380007	1.62483	10.0001	4.14657	969.958	117.46	65.6293	2.22481e-4
0.0238657	0.0393134	1.64728	10.0001	4.28449	976.770	117.28	65.7697	2.22436e-4
0.0242671	0.0402243	1.65756	10.0001	4.39746	983.628	117.07	65.7806	2.23177e-4
0.0251442	0.0416237	1.65540	10.0001	4.53321	990.673	116.78	65.4978	2.21842e-4
0.0256571	0.0428539	1.67026	10.0001	4.68413	997.485	116.58	65.5495	2.22700e-4
0.0262832	0.0444837	1.69248	10.0001	4.84336	1004.34	116.33	65.6726	2.22063e-4
0.0271116	0.0457783	1.68851	10.0001	4.99859	1011.21	116.06	65.4207	2.22268e-4
0.0277113	0.0471542	1.70162	10.0001	5.15625	1018.10	115.86	65.4504	2.22642e-4
0.0283944	0.0487325	1.71627	10.0001	5.31895	1024.98	115.60	65.4869	2.22291e-4
0.0291611	0.0504290	1.72933	10.0001	5.49981	1031.82	115.40	65.4927	2.22103e-4
0.0298969	0.0519283	1.73691	10.0001	5.67465	1038.63	115.17	65.4451	2.22475e-4
0.0309304	0.0537878	1.73900	10.0001	5.86518	1045.45	114.98	65.2834	2.21719e-4
0.0315386	0.0554971	1.75965	10.0001	6.06785	1052.16	114.73	65.4352	2.22574e-4
0.0322526	0.0575022	1.78287	10.0001	6.26780	1059.07	114.47	65.6023	2.22186e-4
0.0336568	0.0595775	1.77015	10.0001	6.49067	1066.03	114.29	65.2344	2.21442e-4
0.0344550	0.0610234	1.77110	10.0001	6.69377	1072.76	114.02	65.1326	2.22766e-4
0.0352967	0.0637521	1.80618	10.0001	6.94327	1079.54	113.75	65.4460	2.21732e-4
0.0362886	0.0661266	1.82224	10.0001	7.20077	1086.46	113.56	65.5123	2.21806e-4
0.0371696	0.0682631	1.83653	10.0001	7.44735	1093.22	113.38	65.5767	2.22363e-4
0.0383254	0.0705204	1.84004	10.0001	7.69252	1100.17	113.11	65.4881	2.22154e-4
0.0390565	0.0730670	1.87080	10.0001	7.96048	1106.89	112.93	65.7676	2.22362e-4
0.0400474	0.0757040	1.89036	10.0001	8.22851	1113.86	112.73	65.8906	2.22041e-4
0.0415689	0.0782576	1.88260	10.0001	8.50962	1120.78	112.47	65.6602	2.21761e-4
0.0423128	0.0806712	1.90654	10.0001	8.79468	1127.64	112.20	65.8655	2.22691e-4
0.0439950	0.0836054	1.90034	10.0001	9.08553	1134.37	112.02	65.6559	2.21620e-4
0.0447167	0.0866595	1.93797	10.0001	9.42626	1141.27	111.77	66.0187	2.22440e-4
0.0461176	0.0901250	1.95424	10.0001	9.76349	1148.07	111.58	66.0934	2.21683e-4
0.0475276	0.0934210	1.96562	10.0001	10.1295	1154.82	111.32	66.1193	2.21930e-4
0.0490503	0.0969728	1.97701	10.0001	10.5088	1161.64	111.11	66.1436	2.21842e-4
0.0502445	0.100547	2.00115	10.0001	10.8922	1168.59	110.86	66.3278	2.22090e-4
0.0523554	0.104858	2.00281	10.0001	11.3179	1175.41	110.56	66.2262	2.21096e-4
0.0537425	0.109085	2.02978	10.0001	11.7916	1182.15	110.40	66.4349	2.21759e-4
0.0551321	0.113052	2.05056	10.0001	12.2234	1188.97	110.17	66.5798	2.22066e-4
0.0565127	0.117249	2.07474	10.0001	12.6590	1195.63	110.01	66.7598	2.22052e-4
0.0587330	0.122335	2.08291	10.0001	13.1552	1202.35	109.75	66.7452	2.21148e-4
0.0607435	0.127537	2.09960	10.0001	13.7220	1209.18	109.49	66.8299	2.21398e-4
0.0628384	0.132654	2.11104	10.0001	14.2749	1216.05	109.31	66.8645	2.21505e-4
0.0646930	0.137566	2.12644	10.0001	14.8197	1223.03	108.98	66.9502	2.21909e-4
0.0665929	0.144264	2.16636	10.0001	15.4600	1229.86	108.83	67.2699	2.21251e-4
0.0679897	0.148858	2.18941	10.0001	16.0169	1236.67	108.57	67.4425	2.22433e-4
0.0700935	0.154445	2.20342	10.0001	16.5580	1243.42	108.35	67.5110	2.21753e-4
0.0724078	0.161033	2.22397	10.0001	17.2255	1250.35	108.13	67.6359	2.21444e-4
0.0750136	0.167911	2.23840	10.0001	17.9417	1257.13	107.92	67.7005	2.21285e-4
0.0776341	0.175651	2.26256	10.0001	18.7270	1263.94	107.64	67.8549	2.21043e-4
0.0799824	0.182804	2.28556	10.0001	19.5184	1270.84	107.42	68.0062	2.21653e-4
0.0826264	0.190266	2.30273	10.0001	20.2871	1277.61	107.21	68.1012	2.21461e-4
0.0855304	0.198421	2.31988	10.0001	21.1244	1284.47	106.92	68.1936	2.21279e-4
0.0886798	0.207127	2.33568	10.0001	22.0296	1291.35	106.73	68.2725	2.21172e-4
0.0917570	0.216114	2.35528	10.0001	22.9703	1298.11	106.57	68.3871	2.21192e-4
0.0951911	0.225914	2.37327	10.0001	23.9757	1305.01	106.30	68.4848	2.21016e-4
0.0987401	0.235964	2.38974	10.0001	25.0357	1311.79	106.06	68.5707	2.21082e-4
0.100559	0.246088	2.44721	10.0001	26.1116	1318.59	105.90	69.0061	2.21758e-4
0.104599	0.256520	2.45243	10.0001	27.1402	1326.29	105.57	68.9981	2.21095e-4
0.109694	0.271483	2.47491	10.0001	28.5430	1333.45	105.39	69.1163	2.19887e-4
0.112902	0.283287	2.50913	10.0001	29.9346	1340.25	105.17	69.3445	2.21326e-4
0.118041	0.297314	2.51874	10.0001	31.2944	1347.17	104.93	69.3686	2.20497e-4
0.122949	0.310272	2.52358	10.0001	32.7318	1353.96	104.65	69.3628	2.20999e-4
0.127426	0.323693	2.54025	10.0001	34.1366	1360.68	104.50	69.4513	2.21046e-4
0.131886	0.338896	2.56962	10.0001	35.6699	1367.48	104.24	69.6342	2.20913e-4
0.137392	0.356446	2.59437	10.0001	37.4047	1374.39	104.02	69.7753	2.20427e-4
0.142926	0.373913	2.61612	10.0001	39.2370	1381.29	103.74	69.8956	2.20607e-4
0.149056	0.390634	2.62072	10.0001	41.0133	1388.01	103.55	69.8930	2.20726e-4
0.153629	0.407695	2.65376	10.0001	42.8128	1394.91	103.31	70.0993	2.21054e-4
0.161097	0.425402	2.64066	10.0001	44.6252	1401.67	103.11	69.9720	2.20640e-4
0.168192	0.447215	2.65895	10.0001	46.8016	1408.51	102.85	70.0672	2.20260e-4
0.173614	0.467418	2.69228	10.0001	49.0261	1415.40	102.66	70.2722	2.21054e-4
0.180874	0.488925	2.70313	10.0001	51.1644	1422.22	102.34	70.3175	2.20612e-4
0.190621	0.511856	2.68520	10.0001	53.5225	1428.98	102.21	70.1624	2.20188e-4
0.198550	0.540211	2.72078	10.0001	56.3358	1436.07	101.93	70.3764	2.19912e-4
0.205888	0.568278	2.76013	10.0001	59.3135	1442.85	101.67	70.6133	2.20413e-4
0.215861	0.591448	2.73994	10.0001	61.8579	1449.67	101.54	70.4547	2.20654e-4
0.225841	0.623815	2.76218	10.0001	64.9300	1456.47	101.27	70.5755	2.19783e-4
0.234362	0.659299	2.81316	10.0001	68.5614	1463.32	101.08	70.8818	2.19969e-4
0.246547	0.694396	2.81649	10.0001	72.1229	1470.20	100.84	70.8777	2.19705e-4
0.256093	0.727442	2.84053	10.0001	75.7160	1477.01	100.49	71.0096	2.20381e-4
0.268541	0.761493	2.83567	10.0001	79.2094	1483.80	100.33	70.9578	2.20153e-4
0.283881	0.796719	2.80652	10.0001	82.9103	1490.52	100.10	70.7507	2.20001e-4
0.294281	0.837851	2.84711	10.0001	87.1440	1497.50	99.84	70.9894	2.20184e-4
0.308424	0.884126	2.86659	10.0001	91.6081	1504.28	99.65	71.0902	2.19499e-4
0.326073	0.931505	2.85673	10.0001	96.5227	1511.04	99.47	71.0083	2.19404e-4
0.340471	0.979216	2.87607	10.0001	101.650	1517.90	99.16	71.1104	2.19950e-4
0.358835	1.03165	2.87499	10.0001	106.830	1524.71	99.02	71.0851	2.19365e-4
0.379240	1.09399	2.88469	10.0001	112.947	1531.60	98.71	71.1251	2.18798e-4
0.398845	1.15058	2.88479	10.0001	119.271	1538.63	98.50	71.1092	2.19648e-4
0.418701	1.21687	2.90630	10.0001	125.813	1545.60	98.26	71.2232	2.19244e-4
0.440903	1.27610	2.89429	10.0001	132.256	1552.46	98.03	71.1354	2.19669e-4
0.463232	1.33951	2.89165	10.0001	138.808	1559.23	97.82	71.1048	2.19587e-4
0.486806	1.40891	2.89420	10.0001	145.894	1566.07	97.63	71.1059	2.19431e-4
0.514134	1.48537	2.88908	10.0001	153.609	1572.87	97.35	71.0598	2.19092e-4
0.537042	1.56370	2.91170	10.0001	161.859	1579.75	97.17	71.1839	2.19449e-4
0.569062	1.63897	2.88013	10.0001	169.827	1586.46	96.96	70.9784	2.19404e-4
0.598751	1.71988	2.87245	10.0001	178.368	1593.39	96.69	70.9184	2.19562e-4
0.631951	1.82066	2.88101	10.0001	187.950	1600.21	96.47	70.9572	2.18624e-4
0.665484	1.92325	2.89000	10.0001	198.635	1607.05	96.17	70.9990	2.18772e-4
0.701918	2.02332	2.88257	10.0001	209.303	1613.89	95.98	70.9410	2.19060e-4
0.735703	2.12973	2.89482	10.0001	220.427	1620.62	95.81	71.0042	2.19275e-4
0.780865	2.24377	2.87344	10.0001	231.797	1627.26	95.52	70.8602	2.18710e-4
0.823888	2.36340	2.86859	10.0001	244.344	1634.09	95.32	70.8181	2.18810e-4
0.867729	2.48018	2.85824	10.0001	256.860	1641.58	95.12	70.7425	2.19109e-4
0.922143	2.63441	2.85683	10.0001	271.224	1648.65	94.89	70.7199	2.17786e-4
0.982804	2.78625	2.83500	10.0001	287.402	1655.62	94.54	70.5695	2.18028e-4
1.03723	2.94511	2.83939	10.0001	304.032	1662.30	94.31	70.5847	2.18258e-4
1.09793	3.09812	2.82178	10.0001	320.509	1669.07	94.20	70.4611	2.18543e-4
1.16107	3.26728	2.81403	10.0001	337.865	1676.07	93.98	70.3992	2.18405e-4
1.22862	3.44384	2.80301	10.0001	356.240	1682.88	93.69	70.3159	2.18404e-4
1.29998	3.63210	2.79397	10.0001	375.510	1689.56	93.44	70.2448	2.18195e-4
1.38303	3.85069	2.78423	10.0001	397.002	1696.55	93.23	70.1673	2.17516e-4
1.47029	4.07071	2.76865	10.0001	420.496	1703.29	93.06	70.0513	2.17768e-4
1.55797	4.29720	2.75821	10.0001	444.211	1710.18	92.84	69.9687	2.17848e-4
1.64716	4.52918	2.74969	10.0001	468.735	1716.95	92.58	69.8986	2.18042e-4
1.75084	4.78107	2.73073	10.0001	494.462	1723.78	92.32	69.7569	2.17738e-4
1.86119	5.06535	2.72157	10.0001	522.924	1730.56	92.11	69.6793	2.17264e-4
1.98237	5.36857	2.70817	10.0001	553.884	1737.38	91.86	69.5716	2.17032e-4
2.10806	5.67002	2.68968	10.0001	586.527	1744.46	91.68	69.4282	2.17402e-4
2.24532	6.00345	2.67376	10.0001	620.379	1751.43	91.43	69.3002	2.17074e-4
2.39143	6.35253	2.65637	10.0001	657.002	1758.31	91.13	69.1600	2.17097e-4
2.54361	6.72453	2.64370	10.0001	695.425	1765.05	90.91	69.0516	2.16954e-4
2.70295	7.10383	2.62818	10.0001	735.643	1771.97	90.76	68.9217	2.17109e-4
2.88558	7.52397	2.60744	10.0001	778.263	1778.82	90.45	68.7508	2.16691e-4
3.08283	7.98516	2.59021	10.0001	825.428	1785.56	90.26	68.6022	2.16385e-4
3.29643	8.48752	2.57476	10.0001	876.427	1792.32	90.07	68.4640	2.16002e-4
3.52771	9.00604	2.55294	10.0001	931.472	1799.15	89.85	68.2756	2.16143e-4
3.75405	9.50873	2.53293	10.0001	987.336	1805.94	89.56	68.0997	2.16801e-4
3.97663	10.0217	2.52015	10.0001	1042.32	1812.82	89.47	67.9779	2.17033e-4
4.23084	10.5764	2.49983	10.0001	1099.22	1819.56	89.15	67.7942	2.16702e-4
4.53526	11.2199	2.47393	10.0001	1162.89	1826.41	88.91	67.5598	2.15816e-4
4.84199	11.8979	2.45724	10.0001	1234.37	1833.30	88.69	67.3955	2.15863e-4
5.15729	12.5673	2.43681	10.0001	1307.62	1840.05	88.50	67.1993	2.16272e-4
5.50560	13.2783	2.41179	10.0001	1382.70	1846.94	88.21	66.9607	2.16207e-4
5.90924	14.1272	2.39070	10.0001	1464.23	1853.94	87.97	66.7462	2.14971e-4
6.31610	14.9340	2.36444	10.0001	1555.66	1860.81	87.77	66.4861	2.15755e-4
6.71507	15.7404	2.34404	10.0001	1644.22	1867.64	87.56	66.2736	2.16127e-4
7.18831	16.6817	2.32067	10.0001	1735.24	1874.42	87.37	66.0264	2.14945e-4
7.72057	17.7121	2.29415	10.0001	1840.68	1881.25	87.10	65.7433	2.14441e-4
8.40976	19.0102	2.26050	10.0001	1960.13	1888.00	86.85	65.3780	2.12376e-4
9.00196	20.1187	2.23492	10.0001	2099.62	1894.85	86.66	65.0902	2.14645e-4
9.60913	21.2426	2.21067	10.0001	2222.71	1901.73	86.36	64.8101	2.14896e-4
10.2923	22.4580	2.18201	10.0001	2349.64	1908.63	86.21	64.4783	2.14475e-4
11.0808	23.8169	2.14939	10.0001	2488.42	1915.41	85.97	64.0943	2.13751e-4
11.9222	25.3037	2.12241	10.0001	2643.36	1922.17	85.75	63.7559	2.13377e-4
12.7967	26.7906	2.09356	10.0001	2809.70	1929.02	85.54	63.3917	2.13802e-4
13.7646	28.3791	2.06175	10.0001	2979.78	1935.82	85.27	62.9848	2.13605e-4
14.8777	30.1444	2.02615	10.0001	3163.01	1942.73	85.04	62.5194	2.12893e-4
15.9404	31.8773	1.99978	10.0001	3364.53	1949.54	84.86	62.1507	2.13778e-4
17.0432	33.5559	1.96888	10.0001	3561.32	1956.36	84.59	61.7245	2.14437e-4
18.3000	35.4293	1.93603	10.0001	3757.54	1963.11	84.32	61.2585	2.13755e-4
19.6201	37.3440	1.90335	10.0001	3976.18	1970.00	84.10	60.7826	2.14039e-4
21.0100	39.3917	1.87490	10.0001	4201.10	1976.88	83.90	60.3441	2.13873e-4
22.5536	41.5344	1.84159	10.0001	4440.11	1983.72	83.63	59.8305	2.13767e-4
24.3034	43.8724	1.80520	10.0001	4695.22	1990.51	83.48	59.2560	2.13283e-4
26.1161	46.2933	1.77260	10.0001	4974.26	1997.29	83.19	58.7159	2.13508e-4
27.9433	48.7023	1.74290	10.0001	5261.89	2004.14	83.05	58.2050	2.14050e-4
30.0157	51.2908	1.70880	10.0001	5550.80	2011.02	82.72	57.6132	2.13721e-4
32.4232	54.2258	1.67244	10.0001	5867.03	2017.78	82.55	56.9587	2.12819e-4
34.8115	57.1102	1.64055	10.0001	6222.93	2024.59	82.33	56.3589	2.13600e-4
37.2300	59.8858	1.60854	10.0001	6573.71	2031.47	82.11	55.7480	2.14411e-4
39.9162	62.8511	1.57458	10.0001	6918.40	2038.26	81.83	55.0834	2.14121e-4
42.9443	66.1477	1.54032	10.0001	7290.75	2045.13	81.60	54.3845	2.13490e-4
46.1569	69.5828	1.50753	10.0001	7703.88	2051.98	81.39	53.6890	2.13581e-4
49.7327	73.2697	1.47327	10.0001	8137.03	2058.83	81.16	52.9405	2.13250e-4
53.1597	76.6156	1.44123	10.0001	8603.95	2065.64	81.05	52.2278	2.14654e-4
57.1247	80.4696	1.40867	10.0001	9038.53	2072.34	80.77	51.4688	2.13696e-4
61.5211	84.5209	1.37385	10.0001	9537.20	2079.19	80.48	50.6403	2.13541e-4
66.1741	88.5777	1.33855	10.0001	10069.9	2085.96	80.24	49.7801	2.13883e-4
70.6982	92.4553	1.30775	10.0001	10612.1	2092.80	80.02	48.9982	2.14814e-4
75.1873	96.2747	1.28047	10.0001	11132.8	2099.76	79.79	48.2769	2.15416e-4
80.2497	100.252	1.24925	10.0001	11647.0	2106.75	79.56	47.4483	2.15155e-4
85.8425	104.607	1.21859	10.0001	12199.9	2113.54	79.34	46.5990	2.14712e-4
91.7659	109.022	1.18805	10.0001	12804.5	2120.29	79.15	45.7307	2.14871e-4
98.9614	114.095	1.15292	10.0001	13429.4	2127.21	78.89	44.7086	2.13715e-4
105.551	118.676	1.12434	10.0001	14157.5	2133.95	78.63	43.8415	2.15260e-4
111.986	122.890	1.09737	10.0001	14816.9	2140.82	78.47	43.0093	2.16143e-4
118.286	126.874	1.07261	10.0001	15440.1	2147.65	78.21	42.2274	2.16827e-4
126.633	131.884	1.04147	10.0001	16042.3	2154.46	78.00	41.2237	2.14954e-4
134.555	136.397	1.01368	10.0001	16809.7	2161.32	77.78	40.3076	2.16108e-4
142.901	141.100	0.987400	10.0001	17519.4	2168.49	77.50	39.4092	2.16119e-4
151.586	145.547	0.960164	10.0001	18258.7	2175.28	77.36	38.4735	2.16471e-4
160.239	149.935	0.935697	10.0001	18993.7	2182.20	77.04	37.6054	2.16915e-4
169.212	154.179	0.911161	10.0001	19718.9	2189.10	76.83	36.7240	2.17161e-4
178.843	158.660	0.887146	10.0001	20447.8	2195.82	76.60	35.8364	2.17007e-4
188.461	162.773	0.863693	10.0001	21218.6	2202.71	76.38	34.9627	2.17532e-4
198.724	166.876	0.839735	10.0001	21963.0	2209.57	76.19	34.0591	2.17526e-4
209.980	171.120	0.814934	10.0001	22735.5	2216.44	75.88	33.1075	2.17286e-4
221.457	175.329	0.791708	10.0001	23560.6	2223.16	75.70	32.1943	2.17524e-4
231.941	179.057	0.771995	10.0001	24387.2	2230.00	75.43	31.4029	2.18475e-4
242.832	182.239	0.750476	10.0001	25130.4	2236.85	75.27	30.5537	2.18757e-4
254.949	185.957	0.729387	10.0001	25864.1	2243.75	75.02	29.6915	2.18244e-4
267.671	189.614	0.708387	10.0001	26680.1	2250.49	74.83	28.8228	2.18280e-4
280.517	192.914	0.687709	10.0001	27517.4	2257.37	74.54	27.9641	2.18610e-4
293.880	196.041	0.667080	10.0001	28337.0	2264.14	74.32	27.1007	2.18702e-4
307.383	198.895	0.647057	10.0001	29167.9	2270.98	74.12	26.2566	2.18962e-4
319.904	201.592	0.630163	10.0001	29985.3	2279.29	73.84	25.5288	2.19585e-4
337.526	204.700	0.606473	10.0001	30745.0	2286.50	73.59	24.5125	2.17879e-4
351.362	206.570	0.587913	10.0001	31763.1	2293.29	73.41	23.7206	2.19733e-4
364.984	208.669	0.571721	10.0001	32535.1	2300.15	73.13	23.0108	2.19915e-4
380.118	210.684	0.554259	10.0001	33300.7	2307.01	72.85	22.2442	2.19629e-4
394.641	212.084	0.537409	10.0001	34129.1	2313.82	72.64	21.5106	2.20134e-4
408.887	213.129	0.521241	10.0001	34898.1	2320.67	72.43	20.8066	2.20425e-4
422.829	214.129	0.506419	10.0001	35633.7	2327.58	72.20	20.1547	2.20645e-4
437.138	215.109	0.492085	10.0001	36348.7	2334.31	72.01	19.5191	2.20673e-4
451.311	215.333	0.477128	10.0001	37074.2	2341.13	71.75	18.8689	2.20963e-4
467.023	215.702	0.461867	10.0001	37764.8	2348.02	71.49	18.1969	2.20634e-4
482.051	216.092	0.448276	10.0001	38526.5	2354.81	71.30	17.5922	2.20930e-4
496.202	215.710	0.434722	10.0001	39248.3	2361.76	71.14	17.0016	2.21357e-4
511.150	215.521	0.421640	10.0001	39902.7	2368.46	70.92	16.4245	2.21220e-4
525.446	214.839	0.408869	10.0001	40594.4	2375.32	70.66	15.8679	2.21543e-4
540.680	214.447	0.396624	10.0001	41239.2	2382.24	70.37	15.3255	2.21368e-4
557.191	224.168	0.402319	10.0001	41928.2	2389.25	70.14	15.3784	2.19922e-4
-237.474	754.919	-3.17895	10.0001	42976.0	2396.16	69.93	74.4367	1.20351e-4
456.225	167.583	0.367326	10.0001	79115.5	2403.07	69.77	15.0077	4.85104e-4

[step]
Temperature ramp - 4
Storage modulus	Loss modulus	Tan(delta)	Angular frequency	Oscillation torque	Step time	Temperature	Raw phase	Oscillation displacement
MPa	MPa		rad/s	µN.m	s	°C	°	rad
647.028	296.753	0.458640	10.0001	43940.3	6.28566	70.29	16.3851	2.04178e-4
316.627	310.052	0.979236	10.0001	48329.1	13.0333	70.55	34.1550	3.04205e-4
530.658	211.146	0.397895	10.0001	35757.0	19.9053	70.84	15.4527	1.94446e-4
518.644	211.222	0.407259	10.0001	41367.6	26.7012	71.08	15.8729	2.27997e-4
503.289	211.576	0.420387	10.0001	40810.3	33.6146	71.33	16.4541	2.28890e-4
488.421	211.391	0.432805	10.0001	40102.1	40.3676	71.61	17.0116	2.28927e-4
473.470	211.495	0.446691	10.0001	39395.3	47.3194	71.80	17.6251	2.29025e-4
459.710	211.488	0.460046	10.0001	38689.3	54.1620	71.93	18.2129	2.28827e-4
442.999	211.116	0.476561	10.0001	38027.7	60.8183	72.19	18.9420	2.29859e-4
425.639	210.147	0.493721	10.0001	37208.4	67.7637	72.49	19.7062	2.30329e-4
409.039	209.046	0.511067	10.0001	36331.5	74.4843	72.71	20.4745	2.30307e-4
392.905	208.013	0.529422	10.0001	35479.6	81.7845	72.89	21.2757	2.30317e-4
375.787	206.035	0.548277	10.0001	34642.0	88.7199	73.13	22.1130	2.31065e-4
361.878	204.315	0.564597	10.0001	33719.2	95.5471	73.35	22.8303	2.30119e-4
346.837	202.604	0.584147	10.0001	32953.9	102.434	73.64	23.6714	2.30686e-4
331.278	199.935	0.603526	10.0001	32124.6	109.183	73.78	24.5210	2.31369e-4
315.513	197.092	0.624670	10.0001	31225.2	116.060	74.09	25.4343	2.31763e-4
300.898	194.268	0.645626	10.0001	30298.9	122.870	74.30	26.3275	2.31560e-4
287.210	191.471	0.666657	10.0001	29423.4	129.724	74.51	27.2113	2.31430e-4
274.275	188.089	0.685766	10.0001	28589.3	136.469	74.68	28.0273	2.31574e-4
262.647	185.237	0.705272	10.0001	27762.1	143.376	75.03	28.8330	2.31046e-4
249.464	181.524	0.727654	10.0001	27016.3	150.195	75.15	29.7578	2.32341e-4
238.344	178.261	0.747912	10.0001	26147.2	157.051	75.45	30.5798	2.31485e-4
224.932	173.835	0.772834	10.0001	25394.9	163.831	75.68	31.5878	2.33404e-4
213.111	169.776	0.796658	10.0001	24460.8	170.690	75.90	32.5317	2.32841e-4
202.204	165.935	0.820632	10.0001	23621.6	177.547	76.08	33.4571	2.32577e-4
190.003	161.103	0.847899	10.0001	22831.3	184.382	76.44	34.5058	2.34195e-4
178.502	156.131	0.874674	10.0001	21914.4	191.470	76.55	35.5234	2.34361e-4
168.566	151.704	0.899965	10.0001	21021.1	198.109	76.86	36.4588	2.33550e-4
159.623	147.521	0.924181	10.0001	20233.7	204.953	77.04	37.3372	2.33169e-4
151.403	143.593	0.948417	10.0001	19507.6	211.750	77.17	38.1929	2.32892e-4
142.140	138.814	0.976600	10.0001	18827.4	218.644	77.53	39.1752	2.34579e-4
133.532	134.043	1.00383	10.0001	18037.4	225.437	77.67	40.1119	2.34646e-4
125.751	129.621	1.03077	10.0001	17278.0	232.311	77.94	41.0095	2.34207e-4
117.980	125.092	1.06028	10.0001	16577.3	239.107	78.24	41.9626	2.34763e-4
110.646	120.497	1.08903	10.0001	15867.3	245.959	78.40	42.8778	2.35006e-4
103.816	115.990	1.11727	10.0001	15172.1	252.719	78.60	43.7580	2.35039e-4
97.1201	111.440	1.14744	10.0001	14503.8	259.562	78.88	44.6690	2.35489e-4
90.5359	106.894	1.18068	10.0001	13835.5	266.428	79.07	45.6334	2.35979e-4
84.2533	102.226	1.21332	10.0001	13170.0	273.356	79.29	46.5645	2.36492e-4
78.9393	98.0529	1.24213	10.0001	12511.0	280.042	79.51	47.3699	2.35539e-4
74.1568	94.2962	1.27158	10.0001	11933.3	286.935	79.77	48.1573	2.34945e-4
70.4350	91.3533	1.29699	10.0001	11413.7	293.699	79.95	48.8116	2.33050e-4
65.3726	87.0273	1.33125	10.0001	10995.6	300.698	80.17	49.6884	2.37101e-4
60.4739	82.6781	1.36717	10.0001	10410.9	307.537	80.49	50.5767	2.37676e-4
55.9566	78.4840	1.40259	10.0001	9831.43	314.398	80.69	51.4273	2.37778e-4
52.0237	74.6758	1.43542	10.0001	9281.47	321.188	80.90	52.1934	2.37066e-4
49.2029	71.9516	1.46234	10.0001	8793.00	328.073	81.11	52.7930	2.34007e-4
46.0508	68.8026	1.49406	10.0001	8434.48	334.950	81.35	53.4823	2.35804e-4
42.9908	65.5582	1.52494	10.0001	8027.79	341.599	81.52	54.1450	2.36487e-4
39.7118	62.0038	1.56134	10.0001	7614.50	348.625	81.81	54.8975	2.38260e-4
36.5422	58.4997	1.60088	10.0001	7165.79	355.430	82.05	55.6795	2.38822e-4
34.1393	55.7706	1.63362	10.0001	6731.24	362.151	82.29	56.3035	2.36210e-4
32.0326	53.2002	1.66081	10.0001	6392.28	369.006	82.51	56.8229	2.35851e-4
29.8658	50.5757	1.69343	10.0001	6077.51	375.793	82.68	57.4153	2.36701e-4
27.6706	47.8893	1.73069	10.0001	5754.28	382.564	82.93	58.0633	2.37609e-4
25.5596	45.1149	1.76508	10.0001	5424.30	389.429	83.15	58.6584	2.38557e-4
23.9110	42.9674	1.79697	10.0001	5096.29	396.192	83.40	59.1809	2.36051e-4
22.3765	40.9170	1.82857	10.0001	4837.04	403.058	83.67	59.6843	2.35952e-4
20.8789	38.8337	1.85995	10.0001	4590.41	410.025	83.83	60.1756	2.36603e-4
19.4064	36.7268	1.89251	10.0001	4342.06	416.899	84.06	60.6723	2.37305e-4
18.0083	34.6322	1.92313	10.0001	4093.08	423.727	84.36	61.1340	2.37798e-4
16.7517	32.7752	1.95654	10.0001	3850.00	430.522	84.60	61.6103	2.36993e-4
15.5012	30.9002	1.99340	10.0001	3630.54	437.318	84.83	62.1166	2.37709e-4
14.5022	29.2967	2.02015	10.0001	3414.00	444.156	84.95	62.4864	2.36263e-4
13.5125	27.6809	2.04854	10.0001	3228.19	450.900	85.22	62.8680	2.36889e-4
12.4711	25.9883	2.08388	10.0001	3039.37	457.746	85.49	63.3210	2.38156e-4
11.5691	24.4720	2.11530	10.0001	2845.94	464.607	85.66	63.7155	2.37310e-4
10.8499	23.2319	2.14120	10.0001	2676.53	471.418	85.91	64.0344	2.35488e-4
10.1071	21.9269	2.16945	10.0001	2532.82	478.292	86.12	64.3746	2.36544e-4
9.36618	20.6336	2.20299	10.0001	2383.20	485.119	86.36	64.7602	2.37031e-4
8.72079	19.4526	2.23060	10.0001	2237.05	491.882	86.60	65.0763	2.36398e-4
8.11163	18.2963	2.25556	10.0001	2103.44	498.801	86.81	65.3611	2.36647e-4
7.56950	17.2821	2.28313	10.0001	1975.82	505.519	87.07	65.6600	2.35720e-4
7.08334	16.3529	2.30865	10.0001	1862.41	512.307	87.29	65.9318	2.35138e-4
6.60356	15.4172	2.33468	10.0001	1756.70	519.007	87.46	66.2043	2.35582e-4
6.16044	14.5456	2.36113	10.0001	1652.64	525.917	87.71	66.4735	2.35231e-4
5.79042	13.7911	2.38171	10.0001	1557.90	532.790	87.96	66.6834	2.34140e-4
5.39899	12.9781	2.40379	10.0001	1471.28	539.545	88.18	66.9060	2.35222e-4
5.03961	12.2512	2.43099	10.0001	1382.41	546.288	88.47	67.1646	2.34456e-4
4.70526	11.5484	2.45436	10.0001	1302.07	553.164	88.72	67.3870	2.34528e-4
4.38809	10.8599	2.47486	10.0001	1224.84	559.958	88.88	67.5828	2.34829e-4
4.15848	10.3892	2.49832	10.0001	1156.90	566.793	89.12	67.7904	2.32127e-4
3.89719	9.80823	2.51674	10.0001	1099.74	573.547	89.29	67.9607	2.33918e-4
3.64370	9.24499	2.53725	10.0001	1036.36	580.302	89.57	68.1447	2.34097e-4
3.40534	8.69247	2.55260	10.0001	975.144	587.286	89.78	68.2870	2.34415e-4
3.19626	8.22958	2.57475	10.0001	917.990	594.144	90.01	68.4755	2.33311e-4
2.99543	7.77660	2.59616	10.0001	867.282	601.040	90.23	68.6559	2.33495e-4
2.81500	7.34004	2.60748	10.0001	818.243	607.773	90.46	68.7595	2.33487e-4
2.62877	6.91263	2.62960	10.0001	770.987	614.650	90.74	68.9410	2.33837e-4
2.45731	6.50281	2.64632	10.0001	724.934	621.564	90.97	69.0809	2.33870e-4
2.32659	6.19706	2.66358	10.0001	684.663	628.469	91.14	69.2188	2.31948e-4
2.19817	5.89806	2.68317	10.0001	651.280	635.180	91.36	69.3714	2.32033e-4
2.06228	5.56097	2.69651	10.0001	616.957	642.062	91.57	69.4812	2.33239e-4
1.93084	5.23841	2.71302	10.0001	580.825	649.045	91.84	69.6117	2.33259e-4
1.81265	4.94582	2.72850	10.0001	547.109	655.981	92.04	69.7328	2.32869e-4
1.70546	4.66963	2.73805	10.0001	516.252	662.721	92.30	69.8124	2.32795e-4
1.59391	4.39702	2.75863	10.0001	486.574	669.559	92.52	69.9657	2.33210e-4
1.49830	4.16219	2.77794	10.0001	458.611	676.435	92.72	70.1072	2.32399e-4
1.41377	3.94355	2.78938	10.0001	433.743	683.154	92.96	70.1953	2.32092e-4
1.34795	3.76018	2.78956	10.0001	411.856	690.043	93.16	70.2079	2.31138e-4
1.27015	3.56266	2.80492	10.0001	391.662	696.995	93.43	70.3203	2.32091e-4
1.19506	3.37961	2.82799	10.0001	370.830	703.703	93.64	70.4808	2.31868e-4
1.13008	3.19087	2.82357	10.0001	350.488	710.561	93.85	70.4658	2.32077e-4
1.06808	3.03265	2.83934	10.0001	332.145	717.840	94.08	70.5778	2.31539e-4
1.00817	2.87772	2.85440	10.0001	315.094	724.891	94.36	70.6846	2.31582e-4
0.956791	2.73472	2.85822	10.0001	298.798	731.685	94.58	70.7201	2.31126e-4
0.898413	2.58798	2.88061	10.0001	283.442	738.469	94.77	70.8718	2.31904e-4
0.843993	2.42627	2.87475	10.0001	266.684	745.335	95.05	70.8503	2.32681e-4
0.795584	2.29465	2.88424	10.0001	251.087	752.181	95.25	70.9218	2.31745e-4
0.753475	2.18006	2.89334	10.0001	237.735	758.978	95.48	70.9896	2.30995e-4
0.722811	2.08598	2.88593	10.0001	226.557	765.828	95.76	70.9545	2.29996e-4
0.679955	1.97547	2.90530	10.0001	215.879	772.717	95.94	71.0860	2.31590e-4
0.638248	1.85954	2.91350	10.0001	203.490	779.489	96.16	71.1505	2.31981e-4
0.605035	1.76137	2.91119	10.0001	191.984	786.363	96.45	71.1500	2.31060e-4
0.571680	1.66667	2.91538	10.0001	181.809	793.164	96.68	71.1895	2.31294e-4
0.542649	1.58936	2.92889	10.0001	172.673	800.064	96.85	71.2832	2.30460e-4
0.512324	1.50668	2.94087	10.0001	164.013	806.771	97.15	71.3691	2.31006e-4
0.493187	1.44656	2.93309	10.0001	156.365	813.609	97.31	71.3340	2.29358e-4
0.466797	1.36051	2.91458	10.0001	148.601	820.463	97.51	71.2400	2.31647e-4
0.436905	1.28737	2.94657	10.0001	140.313	827.274	97.82	71.4480	2.31382e-4
0.418859	1.22241	2.91844	10.0001	132.677	834.148	98.02	71.2954	2.30247e-4
0.400773	1.16832	2.91517	10.0001	126.598	840.892	98.19	71.2899	2.29842e-4
0.380209	1.10709	2.91180	10.0001	120.455	847.754	98.39	71.2870	2.30795e-4
0.359779	1.04866	2.91474	10.0001	114.094	854.491	98.67	71.3232	2.30801e-4
0.341759	0.990660	2.89871	10.0001	107.795	861.344	98.90	71.2457	2.30748e-4
0.325045	0.942223	2.89875	10.0001	102.338	868.219	99.13	71.2644	2.30325e-4
0.311976	0.894757	2.86803	10.0001	97.1993	875.064	99.34	71.0944	2.30117e-4
0.292110	0.851182	2.91391	10.0001	92.5216	881.848	99.55	71.3965	2.30684e-4
0.280034	0.807991	2.88533	10.0001	87.6627	888.710	99.78	71.2434	2.30032e-4
0.270090	0.767297	2.84089	10.0001	83.3302	895.537	100.10	70.9876	2.29874e-4
0.259073	0.729511	2.81585	10.0001	79.3125	902.281	100.23	70.8503	2.29958e-4
0.245743	0.695779	2.83132	10.0001	75.5760	909.206	100.49	70.9720	2.29902e-4
0.234095	0.663252	2.83327	10.0001	72.0285	916.071	100.78	71.0080	2.29895e-4
0.222308	0.632394	2.84468	10.0001	68.6602	922.935	100.89	71.1052	2.29991e-4
0.213075	0.599170	2.81202	10.0001	65.1404	930.700	101.24	70.9250	2.30020e-4
0.202996	0.563134	2.77412	10.0001	61.4864	937.637	101.50	70.7118	2.30708e-4
0.193723	0.536819	2.77106	10.0001	58.3676	944.487	101.70	70.7201	2.29763e-4
0.186560	0.514490	2.75778	10.0001	55.7881	951.330	101.91	70.6577	2.29048e-4
0.180011	0.491135	2.72836	10.0001	53.3463	958.124	102.12	70.4885	2.29198e-4
0.172342	0.465337	2.70007	10.0001	50.7722	964.969	102.40	70.3296	2.29989e-4
0.162489	0.445017	2.73874	10.0001	48.4461	971.792	102.57	70.6276	2.29926e-4
0.158342	0.428518	2.70628	10.0001	46.3930	978.725	102.86	70.4323	2.28368e-4
0.152148	0.405602	2.66584	10.0001	44.2510	985.512	103.08	70.1899	2.29782e-4
0.145275	0.386749	2.66220	10.0001	42.1622	992.242	103.32	70.2023	2.29629e-4
0.138426	0.366237	2.64571	10.0001	40.0188	999.156	103.49	70.1298	2.30050e-4
0.134885	0.352605	2.61412	10.0001	38.2709	1005.92	103.73	69.9320	2.28201e-4
0.129611	0.337878	2.60686	10.0001	36.8036	1012.83	103.98	69.9173	2.28994e-4
0.125689	0.322168	2.56321	10.0001	35.1565	1019.00	104.19	69.6334	2.29001e-4
0.120604	0.309695	2.56788	10.0001	33.7429	1025.68	104.42	69.7084	2.28739e-4
0.116686	0.295027	2.52837	10.0001	32.2649	1032.42	104.58	69.4527	2.29229e-4
0.112377	0.281584	2.50570	10.0001	30.7892	1039.25	104.91	69.3238	2.28999e-4
0.107470	0.268282	2.49634	10.0001	29.3992	1046.38	105.08	69.3038	2.29475e-4
0.104724	0.259397	2.47696	10.0001	28.2560	1053.14	105.26	69.1867	2.27933e-4
0.100098	0.246945	2.46704	10.0001	27.0880	1060.14	105.52	69.1660	2.29513e-4
0.0966735	0.235330	2.43428	10.0001	25.8002	1066.87	105.76	68.9553	2.29031e-4
0.0937116	0.225679	2.40822	10.0001	24.7282	1073.71	106.05	68.7899	2.28620e-4
0.0901633	0.215885	2.39438	10.0001	23.6908	1080.57	106.15	68.7328	2.28923e-4
0.0867053	0.206712	2.38407	10.0001	22.6815	1087.33	106.39	68.7066	2.28855e-4
0.0847722	0.198273	2.33889	10.0001	21.7454	1094.18	106.64	68.3678	2.28218e-4
0.0813434	0.190519	2.34216	10.0001	20.9380	1101.03	106.94	68.4604	2.28816e-4
0.0792603	0.183717	2.31789	10.0001	20.1432	1107.83	107.05	68.2988	2.28031e-4
0.0772644	0.175392	2.27002	10.0001	19.3239	1114.57	107.29	67.9289	2.28549e-4
0.0736388	0.167595	2.27591	10.0001	18.5092	1121.58	107.56	68.0662	2.29327e-4
0.0713478	0.160941	2.25572	10.0001	17.7173	1128.56	107.81	67.9477	2.28392e-4
0.0693768	0.154539	2.22753	10.0001	17.0283	1135.30	108.08	67.7501	2.28260e-4
0.0669156	0.149018	2.22695	10.0001	16.4185	1142.17	108.26	67.8173	2.28355e-4
0.0652065	0.142244	2.18144	10.0001	15.7221	1148.92	108.47	67.4552	2.28490e-4
0.0629930	0.136641	2.16915	10.0001	15.1090	1155.82	108.76	67.4155	2.28512e-4
0.0611479	0.130592	2.13568	10.0001	14.4698	1162.69	108.94	67.1657	2.28587e-4
0.0593743	0.125963	2.12151	10.0001	13.9350	1169.45	109.14	67.0982	2.28104e-4
0.0580427	0.121947	2.10098	10.0001	13.4803	1176.37	109.41	66.9528	2.27657e-4
0.0554600	0.116965	2.10900	10.0001	12.9865	1183.18	109.62	67.1460	2.29010e-4
0.0539928	0.111584	2.06665	10.0001	12.3949	1189.93	109.92	66.7981	2.28529e-4
0.0520320	0.107725	2.07036	10.0001	11.9441	1196.84	110.16	66.9362	2.28326e-4
0.0505607	0.103818	2.05333	10.0001	11.4985	1203.66	110.31	66.8469	2.27942e-4
0.0493438	0.100002	2.02664	10.0001	11.0921	1210.47	110.52	66.6464	2.27922e-4
0.0476674	0.0956508	2.00663	10.0001	10.6532	1217.37	110.80	66.5446	2.28678e-4
0.0465482	0.0915691	1.96719	10.0001	10.2085	1224.05	111.04	66.2024	2.28287e-4
0.0449216	0.0887521	1.97571	10.0001	9.86630	1230.97	111.28	66.4110	2.28029e-4
0.0436692	0.0853068	1.95348	10.0001	9.49895	1237.70	111.44	66.2694	2.28160e-4
0.0426695	0.0822972	1.92871	10.0001	9.16168	1244.66	111.65	66.0811	2.27763e-4
0.0415423	0.0793684	1.91054	10.0001	8.85045	1251.43	111.90	65.9783	2.27997e-4
0.0396987	0.0762358	1.92036	10.0001	8.51573	1258.16	112.16	66.2592	2.28857e-4
0.0389478	0.0735130	1.88748	10.0001	8.18534	1265.04	112.30	65.9687	2.27628e-4
0.0377062	0.0707505	1.87636	10.0001	7.90024	1271.96	112.61	65.9751	2.28266e-4
0.0368669	0.0681464	1.84844	10.0001	7.60718	1278.85	112.76	65.7510	2.27838e-4
0.0357797	0.0657924	1.83882	10.0001	7.34891	1285.77	113.08	65.7697	2.27964e-4
0.0348936	0.0638501	1.82985	10.0001	7.11636	1292.72	113.28	65.7791	2.27494e-4
0.0340676	0.0621381	1.82396	10.0001	6.92076	1299.46	113.52	65.8223	2.27427e-4
0.0332528	0.0599805	1.80377	10.0001	6.69690	1306.22	113.78	65.7000	2.27753e-4
0.0322485	0.0582082	1.80499	10.0001	6.49037	1312.86	113.96	65.8676	2.27761e-4
0.0316939	0.0562068	1.77343	10.0001	6.27338	1319.69	114.17	65.5778	2.27458e-4
0.0307345	0.0542060	1.76369	10.0001	6.06364	1326.49	114.39	65.6225	2.28044e-4
0.0298442	0.0525861	1.76202	10.0001	5.86570	1333.36	114.62	65.7646	2.27675e-4
0.0293355	0.0508856	1.73461	10.0001	5.67938	1340.27	114.86	65.5246	2.27371e-4
0.0286591	0.0495733	1.72976	10.0001	5.52678	1347.13	115.01	65.5999	2.27235e-4
0.0276658	0.0479577	1.73347	10.0001	5.35619	1353.93	115.33	65.8585	2.28097e-4
0.0269993	0.0463620	1.71715	10.0001	5.16987	1360.55	115.59	65.8089	2.27668e-4
0.0263136	0.0445851	1.69438	10.0001	4.98239	1367.44	115.75	65.6898	2.27975e-4
0.0256177	0.0433748	1.69315	10.0001	4.83415	1374.23	116.00	65.8522	2.27603e-4
0.0250823	0.0422088	1.68281	10.0001	4.69407	1381.13	116.22	65.8667	2.27144e-4
0.0243531	0.0407690	1.67408	10.0001	4.54580	1387.84	116.48	65.9658	2.27922e-4
0.0237527	0.0395664	1.66577	10.0001	4.40153	1394.78	116.66	66.0434	2.27533e-4
0.0232283	0.0384662	1.65600	10.0001	4.27193	1400.92	116.88	66.0879	2.27235e-4
0.0227292	0.0372277	1.63788	10.0001	4.14264	1407.87	117.16	66.0232	2.27560e-4
0.0220383	0.0359849	1.63283	10.0001	4.00456	1414.70	117.39	66.2077	2.27910e-4
0.0214861	0.0350108	1.62946	10.0001	3.88186	1421.55	117.56	66.3760	2.27364e-4
0.0210169	0.0342080	1.62764	10.0001	3.78191	1428.40	117.82	66.5430	2.27014e-4
0.0205799	0.0331521	1.61090	10.0001	3.67314	1435.24	117.99	66.5116	2.27433e-4
0.0198974	0.0320664	1.61159	10.0001	3.55363	1442.08	118.25	66.8291	2.28029e-4
0.0193746	0.0310854	1.60444	10.0001	3.43398	1448.93	118.51	66.9899	2.27579e-4
0.0189582	0.0302132	1.59367	10.0001	3.33131	1455.59	118.76	67.0633	2.27259e-4
0.0184708	0.0293773	1.59047	10.0001	3.23672	1462.73	118.91	67.2851	2.27466e-4
0.0180406	0.0284505	1.57703	10.0001	3.13351	1469.57	119.16	67.3582	2.27520e-4
0.0175300	0.0275698	1.57272	10.0001	3.03359	1476.51	119.45	67.6120	2.27715e-4
0.0171443	0.0268357	1.56529	10.0001	2.94265	1483.35	119.60	67.7650	2.27189e-4
0.0167873	0.0260828	1.55372	10.0001	2.85841	1490.31	119.91	67.8564	2.27178e-4
0.0163800	0.0253657	1.54857	10.0001	2.77731	1497.10	120.09	68.0806	2.27334e-4
0.0159656	0.0246351	1.54301	10.0001	2.69383	1503.94	120.31	68.3227	2.27433e-4
0.0154532	0.0238661	1.54441	10.0001	2.60628	1510.77	120.60	68.7524	2.27799e-4
0.0151781	0.0233275	1.53691	10.0001	2.53423	1517.64	120.85	68.8916	2.26813e-4
0.0148099	0.0227213	1.53420	10.0001	2.46834	1524.47	120.97	69.1881	2.27281e-4
0.0144844	0.0222250	1.53440	10.0001	2.40576	1531.25	121.17	69.4974	2.26935e-4
0.0141398	0.0215887	1.52681	10.0001	2.33752	1538.16	121.44	69.7467	2.27367e-4
0.0138312	0.0210667	1.52313	10.0001	2.27425	1544.93	121.69	70.0228	2.27063e-4
0.0134842	0.0203636	1.51018	10.0001	2.19998	1551.66	121.92	70.2504	2.27560e-4
0.0131344	0.0198939	1.51464	10.0001	2.13929	1558.62	122.15	70.7155	2.27182e-4
0.0128929	0.0193477	1.50065	10.0001	2.07771	1565.44	122.34	70.8486	2.27054e-4
0.0125608	0.0188403	1.49993	10.0001	2.02109	1572.17	122.56	71.2723	2.27386e-4
0.0122197	0.0183122	1.49857	10.0001	1.95972	1578.99	122.79	71.7283	2.27444e-4
0.0119087	0.0178227	1.49660	10.0001	1.90146	1585.86	123.02	72.1637	2.27321e-4
0.0116853	0.0174770	1.49565	10.0001	1.85627	1592.66	123.27	72.4963	2.26708e-4
0.0113698	0.0170462	1.49925	10.0001	1.80886	1599.52	123.51	73.0484	2.27196e-4
0.0111117	0.0165188	1.48662	10.0001	1.75154	1606.35	123.72	73.3570	2.27377e-4
0.0108361	0.0160765	1.48360	10.0001	1.70030	1613.07	124.01	73.8242	2.27312e-4
0.0105297	0.0156223	1.48365	10.0001	1.64839	1619.95	124.18	74.4208	2.27491e-4
0.0103290	0.0152435	1.47579	10.0001	1.60181	1626.63	124.38	74.7524	2.26916e-4
0.0100790	0.0148768	1.47602	10.0001	1.56056	1633.38	124.57	75.2918	2.27091e-4
9.81902e-3	0.0145702	1.48388	10.0001	1.52315	1640.18	124.89	75.9552	2.26994e-4
9.56079e-3	0.0141737	1.48249	10.0001	1.48094	1647.01	125.18	76.5583	2.27428e-4
9.35736e-3	0.0138129	1.47615	10.0001	1.43846	1653.88	125.39	77.0191	2.27105e-4
9.15996e-3	0.0134985	1.47364	10.0001	1.40158	1660.72	125.54	77.5255	2.26906e-4
8.97199e-3	0.0132793	1.48009	10.0001	1.37366	1667.50	125.71	78.1007	2.26547e-4
8.76555e-3	0.0128795	1.46934	10.0001	1.33503	1675.50	126.04	78.6227	2.27440e-4
8.49489e-3	0.0125122	1.47291	10.0001	1.29395	1682.50	126.30	79.4911	2.27580e-4
8.36088e-3	0.0122629	1.46669	10.0001	1.26106	1688.80	126.44	79.8897	2.26605e-4
8.07778e-3	0.0119678	1.48157	10.0001	1.23162	1695.65	126.69	80.9619	2.27483e-4
7.93403e-3	0.0116434	1.46753	10.0001	1.19440	1702.54	126.92	81.4032	2.27014e-4
7.73127e-3	0.0113844	1.47252	10.0001	1.16545	1709.42	127.14	82.2096	2.27007e-4
7.58113e-3	0.0111423	1.46975	10.0001	1.13806	1716.14	127.39	82.8006	2.26792e-4
7.42575e-3	0.0109220	1.47082	10.0001	1.11355	1722.94	127.61	83.4636	2.26726e-4
7.23028e-3	0.0106504	1.47303	10.0001	1.08644	1729.83	127.81	84.3358	2.27200e-4
7.07108e-3	0.0104427	1.47682	10.0001	1.06202	1736.61	128.13	85.0884	2.26779e-4
6.90518e-3	0.0101859	1.47510	10.0001	1.03612	1743.47	128.32	85.8931	2.27082e-4
6.74079e-3	9.92053e-3	1.47172	10.0001	1.00834	1750.24	128.56	86.7252	2.27093e-4
6.59505e-3	9.70448e-3	1.47148	10.0001	0.984117	1757.08	128.72	87.5143	2.26751e-4
6.46030e-3	9.49146e-3	1.46920	10.0001	0.962085	1764.00	128.95	88.2717	2.26765e-4
6.31232e-3	9.29829e-3	1.47304	10.0001	0.941971	1770.76	129.24	89.1472	2.26714e-4
6.16541e-3	9.07293e-3	1.47159	10.0001	0.919683	1777.65	129.46	90.0516	2.26861e-4
6.03610e-3	8.87971e-3	1.47110	10.0001	0.899284	1784.48	129.68	90.8881	2.26635e-4
5.89600e-3	8.69779e-3	1.47520	10.0001	0.881333	1791.26	129.93	91.8280	2.26662e-4
5.79088e-3	8.50222e-3	1.46821	10.0001	0.861512	1798.13	130.09	92.5810	2.26567e-4
5.62446e-3	8.28475e-3	1.47299	10.0001	0.841981	1804.97	130.36	93.7927	2.26958e-4
5.45648e-3	8.07632e-3	1.48013	10.0001	0.822297	1811.73	130.66	95.0759	2.26984e-4
5.34320e-3	7.89120e-3	1.47687	10.0001	0.803489	1818.50	130.82	96.0088	2.26636e-4
5.22944e-3	7.73846e-3	1.47979	10.0001	0.788617	1825.35	131.04	96.9589	2.26410e-4
5.13971e-3	7.60771e-3	1.48018	10.0001	0.775781	1832.16	131.22	97.7451	2.26168e-4
5.07298e-3	7.46497e-3	1.47151	10.0001	0.762425	1839.00	131.38	98.3916	2.26154e-4
4.92568e-3	7.26739e-3	1.47541	10.0001	0.747451	1845.84	131.75	99.7468	2.26876e-4
4.79044e-3	7.11248e-3	1.48472	10.0001	0.733606	1852.70	131.97	101.007	2.26603e-4
4.73037e-3	6.99483e-3	1.47871	10.0001	0.721117	1859.45	132.16	101.658	2.25968e-4
4.63070e-3	6.85156e-3	1.47960	10.0001	0.710413	1866.27	132.41	102.689	2.26379e-4
4.52226e-3	6.71972e-3	1.48592	10.0001	0.699850	1873.06	132.60	103.806	2.26351e-4
4.42396e-3	6.55051e-3	1.48069	10.0001	0.686146	1879.85	132.83	104.958	2.26501e-4
4.32553e-3	6.41410e-3	1.48285	10.0001	0.675231	1886.62	133.10	106.075	2.26401e-4
4.22028e-3	6.28126e-3	1.48835	10.0001	0.665262	1893.97	133.28	107.280	2.26362e-4
4.13262e-3	6.13590e-3	1.48475	10.0001	0.653895	1901.00	133.59	108.399	2.26313e-4
4.03921e-3	5.99171e-3	1.48339	10.0001	0.643409	1907.76	133.87	109.608	2.26394e-4
3.94825e-3	5.86441e-3	1.48532	10.0001	0.634227	1914.64	134.04	110.785	2.26310e-4
3.85455e-3	5.73820e-3	1.48868	10.0001	0.625648	1921.39	134.26	112.004	2.26236e-4
3.77921e-3	5.62159e-3	1.48750	10.0001	0.617404	1928.00	134.46	113.070	2.26138e-4
3.69483e-3	5.50336e-3	1.48948	10.0001	0.609977	1934.83	134.66	114.251	2.26184e-4
3.61115e-3	5.37519e-3	1.48850	10.0001	0.601974	1941.67	134.87	115.492	2.26256e-4
3.53445e-3	5.26258e-3	1.48894	10.0001	0.594848	1948.50	135.23	116.635	2.26135e-4
3.46554e-3	5.15964e-3	1.48884	10.0001	0.588557	1955.36	135.41	117.688	2.26037e-4
3.41002e-3	5.06143e-3	1.48428	10.0001	0.582109	1962.21	135.54	118.638	2.25918e-4
3.31813e-3	4.95067e-3	1.49201	10.0001	0.577626	1969.04	135.87	119.979	2.26203e-4
3.24367e-3	4.85013e-3	1.49526	10.0001	0.572316	1975.79	136.07	121.139	2.26050e-4
3.17870e-3	4.72884e-3	1.48766	10.0001	0.565487	1982.68	136.28	122.350	2.26104e-4
3.13197e-3	4.64872e-3	1.48428	10.0001	0.560321	1989.49	136.50	123.203	2.25741e-4
3.04669e-3	4.53740e-3	1.48929	10.0001	0.556956	1996.27	136.71	124.573	2.26204e-4
2.99267e-3	4.44168e-3	1.48419	10.0001	0.551552	2003.39	136.93	125.612	2.25950e-4
2.92075e-3	4.35691e-3	1.49171	10.0001	0.548980	2010.34	137.22	126.746	2.25968e-4
2.88581e-3	4.28185e-3	1.48376	10.0001	0.544311	2017.25	137.36	127.524	2.25659e-4
2.82598e-3	4.19841e-3	1.48565	10.0001	0.541906	2024.06	137.63	128.570	2.25866e-4
2.77057e-3	4.11438e-3	1.48503	10.0001	0.538760	2030.91	137.91	129.595	2.25825e-4
2.69150e-3	4.02620e-3	1.49589	10.0001	0.537648	2037.72	138.13	130.860	2.26053e-4
2.65684e-3	3.95968e-3	1.49037	10.0001	0.533852	2044.51	138.34	131.605	2.25599e-4
2.60789e-3	3.88076e-3	1.48808	10.0001	0.531742	2051.34	138.56	132.579	2.25811e-4
2.56024e-3	3.79541e-3	1.48244	10.0001	0.528779	2058.19	138.78	133.599	2.25834e-4
2.49607e-3	3.71855e-3	1.48976	10.0001	0.527946	2065.02	139.06	134.685	2.25926e-4
2.46621e-3	3.66650e-3	1.48670	10.0001	0.525326	2071.86	139.30	135.320	2.25481e-4
2.41217e-3	3.59836e-3	1.49175	10.0001	0.524929	2078.59	139.47	136.273	2.25691e-4
2.36679e-3	3.51272e-3	1.48417	10.0001	0.522535	2085.47	139.71	137.307	2.25772e-4
2.31929e-3	3.44205e-3	1.48410	10.0001	0.521274	2092.25	139.87	138.240	2.25764e-4
2.26348e-3	3.37104e-3	1.48932	10.0001	0.520917	2099.16	140.14	139.238	2.25821e-4
2.24799e-3	3.32863e-3	1.48071	10.0001	0.518087	2106.16	140.37	139.705	2.25282e-4
2.20842e-3	3.27608e-3	1.48345	10.0001	0.518446	2112.92	140.60	140.436	2.25586e-4
2.16530e-3	3.20148e-3	1.47854	10.0001	0.517544	2119.71	140.89	141.387	2.25790e-4
2.12804e-3	3.13822e-3	1.47470	10.0001	0.516154	2126.53	141.09	142.197	2.25616e-4
2.08045e-3	3.09501e-3	1.48766	10.0001	0.517272	2133.36	141.32	142.904	2.25597e-4
2.03591e-3	3.01746e-3	1.48212	10.0001	0.516608	2140.18	141.53	143.900	2.25769e-4
2.00049e-3	2.95072e-3	1.47500	10.0001	0.515234	2146.92	141.79	144.740	2.25616e-4
1.96114e-3	2.90348e-3	1.48051	10.0001	0.515647	2153.84	141.95	145.423	2.25566e-4
1.92409e-3	2.84833e-3	1.48035	10.0001	0.515685	2160.71	142.23	146.170	2.25599e-4
1.88235e-3	2.78866e-3	1.48148	10.0001	0.515928	2167.49	142.38	146.985	2.25618e-4
1.85588e-3	2.75039e-3	1.48198	10.0001	0.515570	2173.63	142.70	147.503	2.25394e-4
1.83785e-3	2.68189e-3	1.45925	10.0001	0.513686	2180.41	142.92	148.263	2.25501e-4
1.79129e-3	2.63986e-3	1.47372	10.0001	0.515608	2187.28	143.15	148.939	2.25555e-4
1.76352e-3	2.58543e-3	1.46606	10.0001	0.515066	2194.31	143.35	149.620	2.25492e-4
1.73732e-3	2.52012e-3	1.45058	10.0001	0.514317	2201.05	143.53	150.402	2.25603e-4
1.70779e-3	2.48320e-3	1.45404	10.0001	0.514587	2207.95	143.77	150.926	2.25383e-4
1.65562e-3	2.44575e-3	1.47724	10.0001	0.517905	2214.79	144.07	151.574	2.25612e-4
1.65271e-3	2.37857e-3	1.43920	10.0001	0.514474	2223.04	144.24	152.256	2.25391e-4
1.61481e-3	2.36445e-3	1.46423	10.0001	0.517023	2229.80	144.52	152.585	2.25318e-4
1.58606e-3	2.31056e-3	1.45679	10.0001	0.517633	2236.58	144.76	153.268	2.25535e-4
1.55266e-3	2.25516e-3	1.45245	10.0001	0.518272	2243.54	145.04	153.986	2.25581e-4
1.52402e-3	2.23368e-3	1.46565	10.0001	0.519357	2250.35	145.18	154.345	2.25331e-4
1.51556e-3	2.20581e-3	1.45544	10.0001	0.518697	2257.15	145.49	154.658	2.25239e-4
1.49344e-3	2.16361e-3	1.44874	10.0001	0.519370	2263.93	145.62	155.191	2.25434e-4
1.47044e-3	2.11583e-3	1.43891	10.0001	0.519431	2270.80	145.90	155.778	2.25414e-4
1.44211e-3	2.06228e-3	1.43004	10.0001	0.520174	2277.55	146.17	156.451	2.25551e-4
1.40987e-3	2.03839e-3	1.44581	10.0001	0.521929	2284.42	146.40	156.836	2.25432e-4
1.39852e-3	2.00624e-3	1.43455	10.0001	0.521191	2291.26	146.50	157.210	2.25207e-4
1.38259e-3	1.97655e-3	1.42960	10.0001	0.521620	2298.19	146.74	157.580	2.25249e-4
1.35436e-3	1.96039e-3	1.44747	10.0001	0.523662	2305.02	147.03	157.866	2.25260e-4
1.33512e-3	1.92523e-3	1.44199	10.0001	0.524282	2311.72	147.30	158.303	2.25323e-4
1.32319e-3	1.88158e-3	1.42200	10.0001	0.524002	2318.44	147.47	158.800	2.25411e-4
1.29701e-3	1.85518e-3	1.43035	10.0001	0.525243	2325.17	147.73	159.172	2.25299e-4
1.28127e-3	1.81852e-3	1.41931	10.0001	0.525559	2331.91	147.92	159.611	2.25354e-4
1.25418e-3	1.79093e-3	1.42797	10.0001	0.527208	2338.70	148.09	159.998	2.25374e-4
1.24542e-3	1.78275e-3	1.43145	10.0001	0.527080	2345.31	148.33	160.114	2.25085e-4
1.21223e-3	1.72382e-3	1.42202	10.0001	0.529431	2352.19	148.56	160.840	2.25593e-4
1.21184e-3	1.69832e-3	1.40145	10.0001	0.527496	2358.92	148.88	161.107	2.25105e-4
1.18367e-3	1.65358e-3	1.39700	10.0001	0.529680	2365.59	149.10	161.666	2.25505e-4
1.17053e-3	1.65216e-3	1.41147	10.0001	0.529871	2372.38	149.25	161.728	2.25070e-4
1.16104e-3	1.62451e-3	1.39918	10.0001	0.530185	2379.28	149.44	162.045	2.25185e-4
1.13691e-3	1.59582e-3	1.40365	10.0001	0.531957	2386.01	149.68	162.421	2.25330e-4
1.12051e-3	1.58280e-3	1.41257	10.0001	0.532788	2392.86	149.89	162.610	2.25181e-4
1.11708e-3	1.56301e-3	1.39919	10.0001	0.532259	2399.58	150.12	162.823	2.25072e-4
1.09198e-3	1.54715e-3	1.41684	10.0001	0.534616	2406.16	150.26	163.068	2.25244e-4

[step]
Flow sweep - 5
Stress	Shear rate	Viscosity	Step time	Temperature	Normal stress
MPa	1/s	Pa.s	s	°C	MPa
4.60725e-5	0.100017	460.646	34.9864	150.00	2.84127e-5
4.79966e-5	0.125907	381.208	70.0523	150.01	9.43040e-5
4.88329e-5	0.158510	308.075	105.156	150.00	5.95564e-5
4.34738e-5	0.199551	217.857	140.235	150.01	-2.45112e-5
4.69518e-5	0.251218	186.897	175.352	150.00	-4.83309e-5
5.59580e-5	0.316261	176.936	210.503	149.99	-3.40275e-5
6.70252e-5	0.398147	168.343	245.388	150.01	-6.23518e-6
7.81643e-5	0.501238	155.943	280.591	150.00	-2.33485e-8
1.18208e-4	0.631023	187.328	315.702	150.01	1.63399e-5
1.42767e-4	0.794417	179.713	350.147	150.00	-8.19992e-5
1.61936e-4	1.00011	161.918	386.658	150.00	3.22960e-6
2.09574e-4	1.25906	166.452	421.701	149.99	3.43993e-5
2.17812e-4	1.58506	137.416	456.797	149.99	-6.31956e-5
2.60462e-4	1.99549	130.525	491.767	149.99	-2.61467e-5
2.88477e-4	2.51218	114.831	526.797	150.01	-6.04972e-6
3.55478e-4	3.16260	112.400	561.937	150.00	2.32658e-5
4.68395e-4	3.98152	117.642	597.012	150.00	1.34240e-4
4.19002e-4	5.01236	83.5938	632.098	150.00	5.29450e-5
5.16628e-4	6.31020	81.8718	667.234	150.00	1.12212e-4
5.45197e-4	7.94416	68.6287	702.416	149.99	2.89650e-4
5.96655e-4	10.0013	59.6576	737.515	149.99	2.71620e-4
4.70157e-4	12.5905	37.3422	772.598	150.01	-4.36564e-5
4.26635e-4	15.8511	26.9152	807.633	149.99	-9.55725e-5
4.82564e-4	19.9547	24.1830	842.748	150.00	-1.07905e-4
6.09563e-4	25.1212	24.2649	876.998	150.01	-2.97192e-5
7.28832e-4	31.6255	23.0457	913.212	149.99	6.06073e-6
8.92855e-4	39.8147	22.4253	948.315	150.00	1.20016e-4
1.07722e-3	50.1243	21.4910	983.406	149.99	2.14410e-4
1.32320e-3	63.1022	20.9692	1018.48	150.00	5.11226e-4
1.62326e-3	79.4417	20.4334	1053.63	150.01	8.26247e-4
1.94380e-3	100.011	19.4358	1088.72	149.99	1.29426e-3

[step]
Flow sweep - 6
Stress	Shear rate	Viscosity	Step time	Temperature	Normal stress
MPa	1/s	Pa.s	s	°C	MPa
5.13837e-5	0.0999989	513.842	34.9625	130.01	-1.19554e-3
6.18801e-5	0.125888	491.549	70.0306	130.00	-1.22756e-3
7.71510e-5	0.158488	486.793	105.052	130.00	-1.22979e-3
9.70811e-5	0.199525	486.561	140.071	130.00	-1.26163e-3
1.30218e-4	0.251183	518.417	175.222	129.99	-1.25874e-3
1.61551e-4	0.316226	510.872	210.324	130.01	-1.18518e-3
2.00089e-4	0.398089	502.623	245.376	130.00	-1.22549e-3
2.45415e-4	0.501186	489.668	280.454	129.99	-1.22873e-3
2.77775e-4	0.630939	440.257	315.562	130.00	-1.25104e-3
3.65454e-4	0.794306	460.092	350.590	130.00	-1.16300e-3
4.34692e-4	0.999978	434.701	385.698	130.00	-1.14981e-3
5.02877e-4	1.25889	399.461	420.798	130.00	-1.15588e-3
6.41109e-4	1.58486	404.521	455.871	130.01	-1.09328e-3
7.65943e-4	1.99520	383.892	490.922	130.00	-9.86194e-4
8.73971e-4	2.51183	347.941	526.052	130.00	-8.79726e-4
1.09028e-3	3.16219	344.787	561.201	130.00	-6.79885e-4
1.37681e-3	3.98100	345.845	596.313	129.99	-3.95342e-4
1.61945e-3	5.01168	323.136	631.408	130.00	-5.72908e-5
1.95959e-3	6.30946	310.579	666.531	130.00	4.14331e-4
2.46608e-3	7.94302	310.471	701.669	130.00	1.36426e-3
3.04813e-3	9.99974	304.821	736.628	130.00	2.34450e-3
3.62866e-3	12.5889	288.243	771.743	130.00	3.79956e-3
4.70158e-3	15.8484	296.659	806.855	130.00	5.88502e-3
6.01973e-3	19.9522	301.708	841.896	130.00	9.23437e-3
7.86913e-3	25.1182	313.283	877.020	130.00	0.0140726
0.0103767	31.6228	328.140	912.068	130.01	0.0204161
0.0127425	39.8092	320.091	947.148	130.00	0.0287331
0.0157842	50.1153	314.957	982.258	130.01	0.0390130
0.0177215	63.0941	280.874	1017.30	129.99	0.0491373
0.0201211	79.4320	253.312	1052.38	130.00	0.0594754
0.0227064	99.9988	227.067	1087.46	130.00	0.0663220

[step]
Flow sweep - 7
Stress	Shear rate	Viscosity	Step time	Temperature	Normal stress
MPa	1/s	Pa.s	s	°C	MPa
1.78677e-3	0.100002	17867.4	34.9849	109.99	-1.48320e-3
2.28889e-3	0.125893	18181.2	70.0652	110.01	-5.50200e-4
2.70056e-3	0.158490	17039.3	105.110	110.01	4.62903e-5
3.20272e-3	0.199527	16051.6	140.228	110.00	9.74435e-4
4.05388e-3	0.251187	16138.8	175.292	110.00	2.72737e-3
4.90513e-3	0.316229	15511.3	210.395	109.99	4.67335e-3
6.02022e-3	0.398105	15122.2	245.482	110.00	7.38832e-3
7.39274e-3	0.501185	14750.5	280.547	110.01	0.0115065
8.80230e-3	0.630960	13950.6	315.594	110.01	0.0157147
0.0107744	0.794330	13564.1	350.671	109.99	0.0228216
0.0128699	0.999997	12869.9	385.749	110.00	0.0320922
0.0156802	1.25893	12455.2	420.841	110.00	0.0438442
0.0195735	1.58489	12350.1	455.944	109.99	0.0613112
0.0230837	1.99525	11569.3	491.018	110.00	0.0829876
0.0266448	2.51190	10607.4	526.141	110.00	0.106306
0.0321518	3.16231	10167.2	561.232	110.00	0.138768
0.0390022	3.98117	9796.67	596.265	110.00	0.174632
0.0468847	5.01188	9354.71	631.329	110.00	0.226421
0.0564205	6.30959	8942.02	666.461	110.00	0.288460
0.0683118	7.94339	8599.83	701.545	110.00	0.358476
0.0793820	10.0002	7938.05	736.662	110.01	0.420353
0.0868578	12.5894	6899.31	771.718	110.00	0.451682
0.0923667	15.8492	5827.85	806.845	110.00	0.436187
0.100991	19.9527	5061.50	842.003	110.00	0.368533
0.0971576	25.1190	3867.89	877.136	110.00	0.315082
0.0980306	31.6221	3100.06	912.081	109.99	0.265824
0.0998767	39.8110	2508.77	947.184	110.00	0.233357
0.102016	50.1191	2035.48	982.361	110.00	0.205145
0.103655	63.0957	1642.82	1017.44	110.00	0.193212
0.102068	79.4326	1284.96	1052.57	110.00	0.176452
0.0997126	99.9994	997.131	1087.66	110.00	0.163599

[step]
Flow sweep - 8
Stress	Shear rate	Viscosity	Step time	Temperature	Normal stress
MPa	1/s	Pa.s	s	°C	MPa
0.0864610	0.0998358	866032	34.8840	90.00	0.0224251
0.147340	0.125779	1171420	70.0541	89.99	0.150861
0.188402	0.158482	1188790	105.116	90.01	0.293690
0.222791	0.199520	1116630	140.211	90.00	0.389707
0.264014	0.251189	1051060	175.175	90.00	0.453699
0.319472	0.316167	1010450	210.255	90.00	0.505713
0.391900	0.398092	984446	245.383	90.00	0.581900
0.472886	0.501167	943570	280.438	90.00	0.652424
0.554124	0.630977	878199	315.527	90.01	0.713770
0.647458	0.794383	815046	350.545	89.99	0.778287
0.726078	1.00005	726039	385.703	90.00	0.800892
0.804427	1.25865	639119	420.803	90.00	0.816185
0.888873	1.58502	560796	455.146	90.00	0.834411
0.970360	1.99535	486310	491.303	90.01	0.833478
0.984672	2.51216	391962	526.424	90.01	0.829130
0.831686	3.16325	262921	561.460	90.00	0.720885
0.552354	3.98129	138737	596.532	90.00	0.580018
0.426288	5.01144	85062.9	631.556	90.00	0.504945
0.392215	6.30890	62168.6	666.679	90.01	0.453575
0.250276	7.94068	31518.2	701.750	90.00	0.355740
0.307336	9.99769	30740.7	736.838	90.00	0.395759
0.139391	12.5863	11074.8	771.978	90.00	0.237668
0.0519521	15.8486	3278.03	806.947	89.99	0.106959
0.0162991	19.9530	816.873	842.027	90.01	0.0419917
6.78486e-3	25.1176	270.124	877.177	90.00	0.0175645
4.62494e-3	31.6188	146.272	912.169	90.00	9.65033e-3
1.05062e-3	39.8062	26.3934	947.285	90.00	1.10685e-3
9.92091e-4	50.1124	19.7973	982.414	90.00	-5.25699e-4
8.98357e-4	63.0869	14.2400	1017.57	90.01	-1.19237e-3
7.92216e-4	79.4239	9.97452	1052.71	90.00	-1.41426e-3
6.96457e-4	99.9932	6.96505	1087.79	90.00	-1.69589e-3

[step]
Flow sweep - 9
Stress	Shear rate	Viscosity	Step time	Temperature	Normal stress
MPa	1/s	Pa.s	s	°C	MPa
0.122545	0.0995784	1230640	34.9262	70.00	0.474523
0.156511	0.126028	1241870	70.0496	69.99	0.689020
0.164720	0.158373	1040080	105.152	70.00	0.725519
0.170866	0.199599	856046	140.249	70.00	0.655395
0.135414	0.251042	539409	175.236	70.00	0.496492
0.0470610	0.316294	148789	210.360	70.01	0.271924
0.131848	0.397809	331435	245.410	70.01	0.507926
0.0821539	0.501537	163804	280.379	69.99	0.353753
0.0653138	0.631071	103497	315.482	70.00	0.379755
0.0770415	0.794351	96986.8	350.536	70.01	0.415805
0.0562950	1.00010	56289.6	385.541	70.00	0.382383
0.0876111	1.25862	69609.1	420.662	69.99	0.441073
0.0522849	1.58501	32987.1	455.626	69.99	0.361453
0.0709994	1.99554	35579.1	490.735	70.00	0.352855
0.0371423	2.51214	14785.1	525.815	70.00	0.214060
0.0315923	3.16190	9991.54	560.875	70.00	0.167067
0.0278010	3.98045	6984.38	595.947	70.00	0.144362
0.0250050	5.01179	4989.25	631.070	69.99	0.130712
0.0227084	6.30939	3599.15	666.180	70.01	0.118930
0.0197343	7.94367	2484.28	701.249	70.00	0.108548
0.0175275	9.99979	1752.79	736.299	69.99	0.0992459
0.0164804	12.5876	1309.26	771.419	70.00	0.0953813
0.0156757	15.8489	989.072	806.483	70.00	0.0901054
0.0149990	19.9528	751.721	841.526	70.01	0.0906460
0.0133205	25.1202	530.270	876.576	70.00	0.0777212
0.0128366	31.6243	405.910	911.732	70.00	0.0749217
0.0124508	39.8125	312.735	946.784	69.99	0.0585862
0.0471275	50.1187	940.317	981.829	70.00	0.214037
0.0621005	63.1029	984.115	1016.87	70.00	0.237731
0.0444305	79.4370	559.317	1051.93	70.00	0.200398
0.0282414	100.011	282.385	1087.05	70.00	0.151688

