Filename	LLM_EP0903_10%01_Oscillatory temperature sweep_Flow
Instrument name	5333-0626
Operator	liming
rundate	14/05/2025
Sample name	LLM_EP0903_10%01_Oscillatory temperature sweep_Flow
Geometry name	8.0mm parallel plate, UPP Stainless steel  - 119113 new 30 11 22
Procedure name	Sample
	Temperature ramp
	Temperature ramp
	Temperature ramp
	Temperature ramp
	Flow sweep
	Flow sweep
	Flow sweep
	Flow sweep
	Flow sweep
	Flow sweep
	Axial
	Sample
proceduresegments	Temperature ramp#Temperature ramp#Temperature ramp#Temperature ramp#Flow sweep#Flow sweep#Flow sweep#Flow sweep#Flow sweep#Flow sweep#Axial
[step]
Temperature ramp - 1
Storage modulus	Loss modulus	Tan(delta)	Angular frequency	Oscillation torque	Step time	Temperature	Raw phase	Oscillation displacement
MPa	MPa		rad/s	µN.m	s	°C	°	rad
2.35624e-3	0.0107847	4.57709	10.0001	0.406223	6.25990	109.73	111.097	8.30259e-5
2.45366e-3	0.0112593	4.58879	10.0001	0.415189	12.9031	109.38	109.844	8.19469e-5
2.61686e-3	0.0118756	4.53810	10.0001	0.431524	19.7794	109.10	108.181	8.15620e-5
2.68458e-3	0.0124464	4.63626	10.0001	0.451032	26.5746	108.90	107.114	8.18236e-5
2.81944e-3	0.0131125	4.65076	10.0001	0.470032	33.4034	108.64	105.749	8.15140e-5
2.94492e-3	0.0137387	4.66520	10.0001	0.490655	40.2283	108.45	104.573	8.16569e-5
3.09021e-3	0.0144930	4.68996	10.0001	0.513596	47.0609	108.25	103.302	8.14743e-5
3.21447e-3	0.0151716	4.71978	10.0001	0.536950	53.8247	107.98	102.281	8.17056e-5
3.34335e-3	0.0158944	4.75404	10.0001	0.560336	60.6740	107.76	101.292	8.16766e-5
3.49587e-3	0.0166592	4.76539	10.0001	0.585218	67.6247	107.52	100.277	8.16577e-5
3.63716e-3	0.0174035	4.78491	10.0001	0.610607	74.3740	107.37	99.3942	8.17742e-5
3.72697e-3	0.0182098	4.88596	10.0001	0.637550	81.1290	107.09	98.7112	8.17649e-5
3.91907e-3	0.0190616	4.86380	10.0001	0.664971	87.9608	106.87	97.7596	8.16597e-5
4.05524e-3	0.0199766	4.92612	10.0001	0.696053	94.9135	106.63	97.0248	8.17016e-5
4.21495e-3	0.0209446	4.96912	10.0001	0.728337	101.634	106.39	96.2721	8.16663e-5
4.36104e-3	0.0218888	5.01918	10.0001	0.761348	108.505	106.21	95.6249	8.17811e-5
4.55419e-3	0.0229942	5.04902	10.0001	0.796747	115.358	105.94	94.8798	8.15732e-5
4.74741e-3	0.0241550	5.08804	10.0001	0.836405	122.164	105.75	94.1886	8.15852e-5
4.90566e-3	0.0254112	5.17997	10.0001	0.879258	129.049	105.47	93.6272	8.15820e-5
5.08080e-3	0.0265523	5.22602	10.0001	0.920309	135.760	105.31	93.0955	8.17688e-5
5.30633e-3	0.0277383	5.22740	10.0001	0.960768	142.720	105.04	92.4983	8.17539e-5
5.45676e-3	0.0292098	5.35296	10.0001	1.00938	149.375	104.83	92.0785	8.15916e-5
5.63981e-3	0.0305250	5.41242	10.0001	1.05686	156.300	104.67	91.6448	8.17632e-5
5.89256e-3	0.0320866	5.44528	10.0001	1.10794	162.984	104.40	91.1141	8.15648e-5
6.12429e-3	0.0337252	5.50680	10.0001	1.16491	169.832	104.15	90.6661	8.16011e-5
6.30173e-3	0.0354048	5.61827	10.0001	1.22369	176.657	103.93	90.3463	8.16486e-5
6.58353e-3	0.0372318	5.65529	10.0001	1.28499	183.464	103.66	89.8958	8.15357e-5
6.82898e-3	0.0390213	5.71407	10.0001	1.34923	190.275	103.50	89.5400	8.16823e-5
7.04566e-3	0.0409809	5.81647	10.0001	1.41601	197.161	103.28	89.2596	8.16277e-5
7.33458e-3	0.0430969	5.87585	10.0001	1.48779	203.939	102.97	88.9126	8.15549e-5
7.60486e-3	0.0453956	5.96929	10.0001	1.56669	210.735	102.83	88.6258	8.15149e-5
7.91155e-3	0.0477375	6.03390	10.0001	1.64855	217.357	102.54	88.3258	8.15623e-5
8.19095e-3	0.0505491	6.17134	10.0001	1.74221	224.209	102.37	88.1014	8.13819e-5
8.50114e-3	0.0532873	6.26825	10.0001	1.83879	231.139	102.10	87.8659	8.14718e-5
8.82745e-3	0.0560664	6.35137	10.0001	1.93642	237.904	101.88	87.6376	8.15226e-5
9.16668e-3	0.0591063	6.44795	10.0001	2.04074	244.817	101.63	87.4310	8.14894e-5
9.52717e-3	0.0622397	6.53286	10.0001	2.14998	251.494	101.43	87.2287	8.15152e-5
9.82174e-3	0.0654878	6.66763	10.0001	2.26395	258.292	101.24	87.1085	8.15699e-5
0.0102533	0.0690561	6.73499	10.0001	2.38449	265.151	100.98	86.9004	8.14597e-5
0.0105984	0.0728813	6.87663	10.0001	2.51614	271.765	100.75	86.7917	8.14323e-5
0.0110160	0.0770005	6.98985	10.0001	2.65787	278.637	100.59	86.6532	8.14114e-5
0.0113812	0.0809428	7.11200	10.0001	2.79963	285.392	100.25	86.5584	8.15772e-5
0.0119078	0.0858340	7.20819	10.0001	2.95804	292.207	100.02	86.4030	8.12603e-5
0.0124060	0.0910553	7.33961	10.0001	3.13918	299.090	99.89	86.2960	8.12788e-5
0.0128585	0.0961350	7.47640	10.0001	3.32027	305.840	99.60	86.2224	8.14220e-5
0.0133367	0.101887	7.63958	10.0001	3.51416	312.710	99.35	86.1668	8.13062e-5
0.0138570	0.107926	7.78854	10.0001	3.72281	319.549	99.17	86.1053	8.13092e-5
0.0144997	0.114498	7.89660	10.0001	3.94673	326.384	98.84	86.0074	8.12384e-5
0.0150176	0.121297	8.07702	10.0001	4.18552	333.197	98.72	85.9863	8.13170e-5
0.0155700	0.127963	8.21856	10.0001	4.42057	340.176	98.53	85.9482	8.14092e-5
0.0162183	0.135479	8.35343	10.0001	4.67390	346.852	98.27	85.8990	8.13003e-5
0.0168681	0.144225	8.55014	10.0001	4.96578	353.802	98.00	85.8894	8.11386e-5
0.0176341	0.153110	8.68259	10.0001	5.27496	360.465	97.82	85.8412	8.11823e-5
0.0182286	0.161977	8.88583	10.0001	5.58820	367.288	97.61	85.8582	8.12956e-5
0.0190557	0.171141	8.98107	10.0001	5.90791	374.254	97.35	85.8031	8.13407e-5
0.0197254	0.181550	9.20385	10.0001	6.25952	380.953	97.11	85.8317	8.12386e-5
0.0205314	0.192064	9.35464	10.0001	6.62688	387.742	96.94	85.8191	8.12934e-5
0.0215643	0.204442	9.48055	10.0001	7.03442	394.589	96.75	85.7826	8.10718e-5
0.0224920	0.217624	9.67564	10.0001	7.48995	401.392	96.40	85.7932	8.10905e-5
0.0237317	0.231903	9.77184	10.0001	7.97333	408.300	96.15	85.7456	8.10084e-5
0.0245250	0.245595	10.0141	10.0001	8.47005	415.120	96.00	85.7969	8.12642e-5
0.0257781	0.262430	10.1804	10.0001	9.01157	422.078	95.78	85.7921	8.09090e-5
0.0269566	0.280033	10.3883	10.0001	9.62313	428.831	95.53	85.8146	8.09745e-5
0.0283174	0.298498	10.5412	10.0001	10.2577	435.567	95.28	85.8113	8.09734e-5
0.0296371	0.317338	10.7075	10.0001	10.9151	442.392	95.03	85.8207	8.10484e-5
0.0311370	0.336919	10.8205	10.0001	11.5985	449.387	94.87	85.8075	8.11146e-5
0.0327618	0.360235	10.9956	10.0001	12.3635	456.048	94.68	85.8190	8.08650e-5
0.0341158	0.384264	11.2635	10.0001	13.1949	463.004	94.37	85.8770	8.09186e-5
0.0359828	0.410226	11.4006	10.0001	14.0747	469.733	94.14	85.8757	8.08537e-5
0.0378581	0.437233	11.5493	10.0001	15.0126	476.665	93.87	85.8831	8.09193e-5
0.0398941	0.466163	11.6850	10.0001	16.0021	483.402	93.69	85.8866	8.08999e-5
0.0418896	0.498518	11.9008	10.0001	17.0901	490.179	93.46	85.9220	8.07872e-5
0.0446999	0.531576	11.8921	10.0001	18.2327	497.098	93.21	85.8710	8.08374e-5
0.0466931	0.567871	12.1618	10.0001	19.4721	503.884	93.03	85.9311	8.08106e-5
0.0498267	0.607178	12.1858	10.0001	20.7856	510.798	92.76	85.8965	8.06785e-5
0.0526444	0.650289	12.3525	10.0001	22.2563	517.519	92.56	85.9174	8.06574e-5
0.0562430	0.695988	12.3747	10.0001	23.8146	524.310	92.31	85.8864	8.06391e-5
0.0591970	0.744833	12.5823	10.0001	25.4898	531.194	92.07	85.9255	8.06637e-5
0.0633864	0.798201	12.5926	10.0001	27.2668	537.999	91.84	85.8938	8.05102e-5
0.0677706	0.854979	12.6158	10.0001	29.2171	544.765	91.62	85.8690	8.05341e-5
0.0721196	0.913379	12.6648	10.0001	31.2507	551.699	91.39	85.8564	8.06299e-5
0.0775001	0.978979	12.6320	10.0001	33.4310	558.478	91.24	85.8149	8.04685e-5
0.0826385	1.05083	12.7160	10.0001	35.8577	565.402	90.94	85.8160	8.04153e-5
0.0891341	1.12877	12.6637	10.0001	38.4719	572.150	90.72	85.7701	8.03126e-5
0.0957752	1.20404	12.5715	10.0001	41.1833	578.966	90.52	85.7136	8.05953e-5
0.102610	1.29023	12.5741	10.0001	44.0172	585.879	90.34	85.6906	8.03858e-5
0.110042	1.38081	12.5480	10.0001	47.1250	592.595	90.00	85.6587	8.04098e-5
0.119710	1.48659	12.4183	10.0001	50.5399	599.426	89.83	85.5881	8.00954e-5
0.129711	1.60221	12.3521	10.0001	54.4459	606.328	89.62	85.5410	8.00496e-5
0.142087	1.72846	12.1648	10.0001	58.6702	613.158	89.29	85.4482	7.99623e-5
0.153329	1.84757	12.0498	10.0001	63.0036	619.911	89.19	85.3850	8.03185e-5
0.166050	1.97009	11.8644	10.0001	67.2499	626.785	88.98	85.2940	8.03869e-5
0.180384	2.12296	11.7691	10.0001	72.0473	633.633	88.72	85.2357	7.99209e-5
0.197983	2.28184	11.5255	10.0001	77.4818	640.389	88.50	85.1151	7.99477e-5
0.215281	2.44580	11.3610	10.0001	83.1690	647.265	88.24	85.0264	8.00639e-5
0.238379	2.64093	11.0787	10.0001	89.3945	654.086	87.97	84.8801	7.96796e-5
0.259059	2.84112	10.9671	10.0001	96.3721	660.913	87.75	84.8102	7.98414e-5
0.284342	3.04363	10.7041	10.0001	103.366	667.784	87.55	84.6664	7.99189e-5
0.314751	3.27304	10.3988	10.0001	110.915	674.578	87.35	84.4932	7.97262e-5
0.346445	3.55161	10.2516	10.0001	119.732	681.391	87.10	84.3950	7.93045e-5
0.387360	3.83294	9.89502	10.0001	129.444	688.211	86.82	84.1770	7.94186e-5
0.426369	4.10461	9.62690	10.0001	139.269	694.943	86.64	84.0004	7.97702e-5
0.467911	4.40508	9.41434	10.0001	149.274	701.828	86.43	83.8497	7.96535e-5
0.522037	4.74099	9.08170	10.0001	160.246	708.591	86.18	83.6103	7.94205e-5
0.576260	5.09853	8.84762	10.0001	172.435	715.543	85.93	83.4261	7.94478e-5
0.645954	5.50411	8.52091	10.0001	185.606	722.283	85.67	83.1599	7.91707e-5
0.717592	5.95122	8.29332	10.0001	200.487	729.256	85.52	82.9556	7.90657e-5
0.803761	6.40113	7.96398	10.0001	216.253	736.089	85.26	82.6523	7.92466e-5
0.892446	6.89317	7.72391	10.0001	232.666	742.966	85.02	82.4091	7.91501e-5
0.988911	7.38634	7.46916	10.0001	250.059	749.625	84.80	82.1376	7.93397e-5
1.09919	7.94820	7.23094	10.0001	268.314	756.461	84.56	81.8642	7.90794e-5
1.23483	8.54866	6.92294	10.0001	288.552	763.279	84.36	81.4920	7.90029e-5
1.37555	9.21269	6.69744	10.0001	310.681	770.102	84.15	81.1904	7.88811e-5
1.56527	9.98952	6.38196	10.0001	335.378	776.885	83.90	80.7439	7.84552e-5
1.76534	10.8109	6.12394	10.0001	363.567	783.703	83.67	80.3405	7.85189e-5
1.96703	11.6410	5.91802	10.0001	392.927	790.649	83.42	79.9891	7.87441e-5
2.22490	12.5717	5.65048	10.0001	423.443	797.570	83.19	79.5057	7.84872e-5
2.47410	13.5257	5.46693	10.0001	457.142	804.390	82.99	79.1369	7.86867e-5
2.79478	14.5971	5.22299	10.0001	492.115	811.199	82.80	78.6206	7.83859e-5
3.18883	15.8699	4.97671	10.0001	532.486	818.088	82.50	78.0467	7.78996e-5
3.60334	17.1761	4.76672	10.0001	578.023	824.933	82.29	77.5079	7.80157e-5
4.01985	18.4452	4.58853	10.0001	624.493	831.832	82.11	77.0111	7.83786e-5
4.49635	19.7629	4.39532	10.0001	670.427	838.553	81.86	76.4360	7.84017e-5
5.03949	21.2170	4.21015	10.0001	719.262	845.481	81.63	75.8349	7.82003e-5
5.61335	22.8398	4.06884	10.0001	773.126	852.335	81.39	75.3247	7.79727e-5
6.37929	24.6730	3.86767	10.0001	832.440	859.143	81.20	74.5644	7.75164e-5
7.25331	26.6901	3.67971	10.0001	901.223	865.820	80.93	73.7790	7.73779e-5
8.06081	28.6347	3.55233	10.0001	975.863	872.686	80.70	73.1850	7.79455e-5
8.95735	30.5093	3.40606	10.0001	1047.11	879.467	80.53	72.4727	7.82907e-5
10.0204	32.6660	3.25996	10.0001	1118.87	886.405	80.26	71.6981	7.79110e-5
11.2152	35.1571	3.13477	10.0001	1201.41	893.071	80.06	70.9631	7.75256e-5
12.6355	37.7639	2.98871	10.0001	1295.06	899.951	79.83	70.0565	7.75259e-5
14.0930	40.3398	2.86241	10.0001	1395.40	906.719	79.65	69.2008	7.79126e-5
15.7040	43.2546	2.75436	10.0001	1495.79	913.537	79.38	68.3934	7.76484e-5
17.6392	46.3215	2.62605	10.0001	1607.88	920.365	79.10	67.3847	7.75995e-5
19.7232	49.5989	2.51475	10.0001	1729.21	927.174	78.93	66.4226	7.76099e-5
21.9873	52.8803	2.40504	10.0001	1858.80	934.013	78.69	65.4078	7.78757e-5
24.3739	56.2963	2.30969	10.0001	1990.84	940.926	78.41	64.4470	7.79950e-5
26.9241	59.8159	2.22165	10.0001	2128.16	947.790	78.21	63.4938	7.81177e-5
29.6496	63.4005	2.13832	10.0001	2270.77	954.675	78.02	62.5311	7.82596e-5
32.9159	67.4256	2.04842	10.0001	2418.50	961.368	77.74	61.4262	7.79311e-5
36.5054	71.6067	1.96154	10.0001	2586.43	968.212	77.50	60.2819	7.79941e-5
40.1553	75.8113	1.88795	10.0001	2762.95	975.161	77.29	59.2334	7.82579e-5
43.9035	79.9195	1.82034	10.0001	2940.71	981.859	77.08	58.2126	7.85662e-5
48.2867	84.3740	1.74735	10.0001	3117.66	988.737	76.87	57.0541	7.83672e-5
53.2098	89.1749	1.67591	10.0001	3313.55	995.614	76.64	55.8429	7.82385e-5
58.0195	93.7963	1.61664	10.0001	3526.72	1002.26	76.46	54.7656	7.86619e-5
63.4539	98.5484	1.55307	10.0001	3733.14	1009.13	76.13	53.5644	7.86441e-5
69.5378	103.761	1.49215	10.0001	3952.57	1015.86	76.00	52.3338	7.84520e-5
76.2145	109.121	1.43176	10.0001	4194.27	1022.70	75.69	51.0505	7.84859e-5
82.7408	114.220	1.38045	10.0001	4448.55	1029.56	75.49	49.8933	7.89089e-5
90.2865	119.497	1.32353	10.0001	4693.18	1036.38	75.27	48.5679	7.87918e-5
97.6261	124.743	1.27776	10.0001	4957.99	1043.28	75.04	47.4239	7.90889e-5
105.774	130.004	1.22907	10.0001	5217.67	1050.11	74.83	46.1724	7.90880e-5
114.024	135.017	1.18411	10.0001	5490.23	1056.98	74.57	44.9680	7.93504e-5
122.556	139.912	1.14162	10.0001	5757.61	1063.91	74.34	43.7847	7.95079e-5
131.900	144.924	1.09874	10.0001	6026.10	1070.61	74.14	42.5466	7.94646e-5
140.613	149.460	1.06292	10.0001	6309.57	1076.82	73.91	41.4680	7.98998e-5
150.216	154.143	1.02615	10.0001	6570.61	1083.57	73.71	40.3278	7.98189e-5
160.574	159.004	0.990225	10.0001	6849.13	1090.33	73.47	39.1727	7.97715e-5
170.992	163.595	0.956738	10.0001	7143.50	1097.14	73.21	38.0644	7.99747e-5
182.175	167.752	0.920831	10.0001	7431.75	1103.94	73.05	36.8660	8.00531e-5
193.756	172.339	0.889464	10.0001	7723.21	1110.76	72.82	35.7621	8.00213e-5
205.411	176.466	0.859091	10.0001	8028.70	1117.61	72.57	34.6772	8.02272e-5
217.933	180.425	0.827891	10.0001	8324.92	1124.43	72.29	33.5443	8.02295e-5
230.745	184.444	0.799339	10.0001	8631.73	1131.33	72.08	32.4719	8.02904e-5
243.982	188.005	0.770570	10.0001	8942.81	1138.17	71.83	31.3818	8.04077e-5
257.884	191.362	0.742046	10.0001	9251.51	1144.95	71.63	30.2819	8.04364e-5
271.560	194.528	0.716335	10.0001	9566.56	1151.77	71.42	29.2666	8.06006e-5
284.792	197.190	0.692398	10.0001	9871.90	1158.40	71.18	28.3116	8.08209e-5
299.092	199.321	0.666420	10.0001	10159.4	1165.21	70.99	27.2758	8.08072e-5
314.019	202.031	0.643374	10.0001	10456.1	1172.03	70.75	26.3193	8.07375e-5
329.068	204.019	0.619989	10.0001	10771.0	1178.86	70.48	25.3525	8.08832e-5
343.089	205.638	0.599372	10.0001	11074.8	1185.66	70.34	24.4896	8.11172e-5
357.860	207.205	0.579012	10.0001	11352.9	1192.53	70.10	23.6273	8.10946e-5
373.413	208.159	0.557449	10.0001	11642.3	1199.32	69.81	22.7178	8.11155e-5
386.674	208.859	0.540143	10.0001	11934.8	1206.13	69.79	21.9798	8.14664e-5

[step]
Temperature ramp - 2
Storage modulus	Loss modulus	Tan(delta)	Angular frequency	Oscillation torque	Step time	Temperature	Raw phase	Oscillation displacement
MPa	MPa		rad/s	µN.m	s	°C	°	rad
363.685	205.695	0.565584	10.0001	11573.1	6.26158	70.28	23.1142	8.20617e-5
350.563	204.730	0.584003	10.0001	11718.3	13.1661	70.54	23.8921	8.49127e-5
333.338	202.743	0.608221	10.0001	11465.4	19.8851	70.86	24.9176	8.56315e-5
315.664	200.366	0.634744	10.0001	11122.9	26.7066	71.11	26.0266	8.58412e-5
300.207	198.037	0.659667	10.0001	10764.8	33.4052	71.37	27.0519	8.56163e-5
285.134	195.457	0.685490	10.0001	10444.9	40.1688	71.57	28.0996	8.56852e-5
270.425	192.002	0.710002	10.0001	10125.9	46.9940	71.71	29.1038	8.58601e-5
256.436	189.032	0.737153	10.0001	9798.16	53.7934	72.01	30.1710	8.57811e-5
242.528	185.617	0.765345	10.0001	9487.92	60.4094	72.17	31.2665	8.59470e-5
229.133	182.191	0.795132	10.0001	9170.00	67.2212	72.40	32.3930	8.59741e-5
214.016	177.544	0.829582	10.0001	8858.39	74.0135	72.64	33.6841	8.66435e-5
199.314	172.647	0.866207	10.0001	8491.23	80.8638	72.93	35.0188	8.68083e-5
187.235	168.486	0.899863	10.0001	8125.01	87.7039	73.07	36.2017	8.63154e-5
175.786	163.723	0.931378	10.0001	7818.50	94.4473	73.29	37.3075	8.64694e-5
163.782	158.930	0.970379	10.0001	7509.43	101.248	73.57	38.6058	8.67664e-5
152.323	153.889	1.01028	10.0001	7187.29	108.092	73.77	39.8972	8.68978e-5
141.239	148.674	1.05264	10.0001	6868.19	115.043	74.04	41.2196	8.70598e-5
130.887	143.277	1.09466	10.0001	6550.53	121.736	74.25	42.4958	8.71676e-5
120.740	137.708	1.14053	10.0001	6240.09	128.568	74.48	43.8302	8.74020e-5
112.167	132.707	1.18312	10.0001	5928.32	135.198	74.66	45.0213	8.70284e-5
103.683	127.568	1.23036	10.0001	5655.55	142.064	74.90	46.2833	8.72709e-5
95.2828	122.212	1.28263	10.0001	5379.73	148.958	75.16	47.6144	8.75770e-5
87.2076	116.605	1.33710	10.0001	5099.10	155.850	75.38	48.9455	8.78710e-5
80.5028	111.555	1.38573	10.0001	4817.53	162.553	75.64	50.0882	8.74650e-5
73.6090	106.369	1.44506	10.0001	4571.20	169.381	75.88	51.3932	8.78564e-5
67.0119	101.024	1.50755	10.0001	4317.55	176.212	76.08	52.7005	8.81480e-5
62.0207	96.6832	1.55888	10.0001	4065.52	182.996	76.29	53.7273	8.73000e-5
56.3752	91.5743	1.62437	10.0001	3863.90	189.887	76.52	54.9669	8.82896e-5
51.1519	86.7564	1.69606	10.0001	3630.82	196.655	76.77	56.2291	8.82623e-5
46.3224	81.9362	1.76883	10.0001	3412.18	203.464	76.99	57.4420	8.84584e-5
42.2408	77.5712	1.83641	10.0001	3199.72	210.300	77.18	58.5099	8.81539e-5
38.5950	73.6383	1.90798	10.0001	3011.09	217.141	77.42	59.5617	8.79045e-5
35.0069	69.5760	1.98749	10.0001	2840.53	223.900	77.63	60.6598	8.83024e-5
31.7631	65.6894	2.06811	10.0001	2667.19	230.548	77.87	61.7056	8.83056e-5
28.5096	61.5988	2.16063	10.0001	2503.57	237.420	78.11	62.8253	8.88976e-5
25.6588	57.7547	2.25087	10.0001	2333.93	244.195	78.35	63.8494	8.88329e-5
22.9895	54.1180	2.35403	10.0001	2176.81	250.986	78.57	64.9229	8.88809e-5
20.7424	50.8368	2.45087	10.0001	2028.76	257.698	78.74	65.8654	8.85774e-5
18.6261	47.6301	2.55717	10.0001	1896.68	264.552	79.01	66.8238	8.87659e-5
16.6549	44.4424	2.66843	10.0001	1768.70	271.260	79.23	67.7590	8.90818e-5
14.9557	41.6014	2.78165	10.0001	1643.48	278.110	79.44	68.6368	8.87580e-5
13.3009	38.7847	2.91594	10.0001	1531.50	284.898	79.75	69.5884	8.90754e-5
12.0007	36.3336	3.02761	10.0001	1422.08	291.687	79.93	70.3330	8.85459e-5
10.8290	34.0670	3.14589	10.0001	1328.15	298.470	80.19	71.0635	8.84357e-5
9.59359	31.6565	3.29976	10.0001	1240.06	305.304	80.37	71.9310	8.91684e-5
8.48789	29.3197	3.45431	10.0001	1147.56	312.063	80.61	72.7353	8.93523e-5
7.50061	27.1681	3.62213	10.0001	1058.91	318.863	80.85	73.5301	8.92268e-5
6.64316	25.1959	3.79276	10.0001	977.476	325.846	81.03	74.2702	8.90470e-5
5.91372	23.4188	3.96008	10.0001	903.712	332.691	81.31	74.9379	8.87603e-5
5.28784	21.7737	4.11770	10.0001	837.586	339.444	81.52	75.5241	8.86423e-5
4.69649	20.1951	4.30005	10.0001	776.357	346.390	81.70	76.1447	8.87613e-5
4.14390	18.6692	4.50522	10.0001	717.313	353.105	81.96	76.7819	8.88783e-5
3.70054	17.3783	4.69614	10.0001	661.786	359.740	82.20	77.3268	8.82221e-5
3.35968	16.2695	4.84258	10.0001	614.879	366.544	82.42	77.7245	8.76527e-5
3.01384	15.2095	5.04655	10.0001	574.513	373.425	82.66	78.2264	8.77293e-5
2.64987	14.0181	5.29010	10.0001	533.575	380.169	82.83	78.7783	8.85314e-5
2.33660	12.9761	5.55341	10.0001	490.597	387.118	83.12	79.3173	8.80544e-5
2.08647	12.0277	5.76462	10.0001	453.297	393.810	83.31	79.7228	8.78609e-5
1.85487	11.1176	5.99372	10.0001	419.314	400.730	83.62	80.1297	8.80060e-5
1.63760	10.2894	6.28326	10.0001	386.949	407.567	83.82	80.5936	8.78428e-5
1.46320	9.52408	6.50909	10.0001	357.374	414.335	83.99	80.9350	8.77165e-5
1.31173	8.85220	6.74849	10.0001	330.940	421.105	84.24	81.2693	8.74550e-5
1.17433	8.21699	6.99720	10.0001	307.071	427.426	84.45	81.5926	8.74816e-5
1.03634	7.56172	7.29653	10.0001	283.754	434.238	84.71	81.9514	8.79025e-5
0.923999	7.02795	7.60602	10.0001	261.528	441.032	84.87	82.2897	8.72312e-5
0.829075	6.52194	7.86652	10.0001	242.551	447.919	85.09	82.5588	8.72218e-5
0.740562	6.01036	8.11595	10.0001	224.296	454.697	85.37	82.8039	8.75606e-5
0.661844	5.56851	8.41362	10.0001	206.922	461.554	85.64	83.0721	8.72271e-5
0.602834	5.19882	8.62397	10.0001	191.991	468.286	85.76	83.2550	8.67128e-5
0.545136	4.83748	8.87390	10.0001	178.860	474.897	85.99	83.4591	8.68467e-5
0.483756	4.45571	9.21066	10.0001	165.649	481.708	86.24	83.7137	8.73590e-5
0.429496	4.10910	9.56728	10.0001	152.407	488.631	86.47	83.9635	8.72011e-5
0.391307	3.82058	9.76363	10.0001	140.849	495.358	86.71	84.1006	8.66742e-5
0.352432	3.54742	10.0655	10.0001	130.829	502.258	86.96	84.2930	8.67322e-5
0.317787	3.28144	10.3259	10.0001	121.124	509.009	87.19	84.4539	8.68316e-5
0.284461	3.03901	10.6834	10.0001	111.966	515.911	87.40	84.6564	8.66979e-5
0.257078	2.80397	10.9071	10.0001	103.414	522.633	87.60	84.7849	8.68047e-5
0.235410	2.60316	11.0580	10.0001	95.6591	529.593	87.81	84.8740	8.64991e-5
0.213965	2.41648	11.2938	10.0001	88.7793	536.306	88.13	84.9996	8.64790e-5
0.195744	2.24612	11.4748	10.0001	82.3627	543.246	88.31	85.0973	8.63331e-5
0.177827	2.08925	11.7488	10.0001	76.5360	549.996	88.50	85.2314	8.62718e-5
0.163725	1.94027	11.8508	10.0001	71.0984	556.907	88.78	85.2925	8.62985e-5
0.149828	1.80385	12.0395	10.0001	66.0315	563.626	88.97	85.3876	8.62190e-5
0.136186	1.67707	12.3146	10.0001	61.3374	570.456	89.22	85.5137	8.61546e-5
0.126125	1.56408	12.4011	10.0001	57.0686	577.296	89.49	85.5663	8.59536e-5
0.117717	1.45964	12.3995	10.0001	53.2386	584.229	89.61	85.5868	8.59277e-5
0.108590	1.35945	12.5191	10.0001	49.6155	590.945	89.85	85.6533	8.59914e-5
0.100711	1.26412	12.5519	10.0001	46.1321	597.767	90.17	85.6895	8.59851e-5
0.0937919	1.18636	12.6489	10.0001	43.1187	604.553	90.34	85.7466	8.56395e-5
0.0880304	1.11264	12.6393	10.0001	40.4215	611.371	90.59	85.7667	8.55967e-5
0.0829805	1.04945	12.6469	10.0001	38.0199	618.166	90.81	85.7920	8.53691e-5
0.0773200	0.979804	12.6721	10.0001	35.6487	624.793	91.01	85.8288	8.57260e-5
0.0714460	0.904379	12.6582	10.0001	33.0568	631.599	91.28	85.8585	8.61377e-5
0.0663070	0.838181	12.6409	10.0001	30.5737	638.497	91.50	85.8873	8.59652e-5
0.0617745	0.784557	12.7003	10.0001	28.4808	645.240	91.72	85.9408	8.55541e-5
0.0589851	0.738568	12.5213	10.0001	26.7306	652.248	91.96	85.9079	8.52930e-5
0.0550663	0.691325	12.5544	10.0001	25.0943	658.987	92.19	85.9561	8.55456e-5
0.0520329	0.643434	12.3659	10.0001	23.3882	665.787	92.39	85.9287	8.56642e-5
0.0485494	0.597461	12.3063	10.0001	21.7419	672.576	92.65	85.9526	8.57609e-5
0.0462002	0.560268	12.1270	10.0001	20.2922	679.576	92.80	85.9269	8.53607e-5
0.0436353	0.525660	12.0467	10.0001	19.0411	686.298	93.02	85.9405	8.53680e-5
0.0413461	0.491181	11.8797	10.0001	17.8177	693.073	93.32	85.9249	8.54862e-5
0.0389863	0.458016	11.7481	10.0001	16.6289	699.696	93.49	85.9272	8.55607e-5
0.0366394	0.429597	11.7250	10.0001	15.5496	706.542	93.79	85.9724	8.53055e-5
0.0349738	0.401891	11.4912	10.0001	14.5559	713.364	94.02	85.9342	8.53548e-5
0.0335104	0.376937	11.2484	10.0001	13.6370	720.250	94.23	85.8892	8.52530e-5
0.0315486	0.353831	11.2154	10.0001	12.8018	727.079	94.44	85.9396	8.52604e-5
0.0302157	0.331692	10.9775	10.0001	11.9984	733.890	94.63	85.9004	8.52444e-5
0.0286396	0.309108	10.7930	10.0001	11.2094	740.684	94.94	85.8943	8.54496e-5
0.0274407	0.290351	10.5810	10.0001	10.4933	747.528	95.08	85.8670	8.51680e-5
0.0260682	0.273428	10.4890	10.0001	9.87508	754.298	95.36	85.8993	8.50993e-5
0.0250225	0.255687	10.2183	10.0001	9.25233	761.183	95.61	85.8506	8.52749e-5
0.0237640	0.239760	10.0892	10.0001	8.67183	767.964	95.78	85.8762	8.52273e-5
0.0228633	0.226028	9.88606	10.0001	8.15460	774.887	96.01	85.8548	8.50122e-5
0.0218382	0.212231	9.71837	10.0001	7.66925	781.664	96.25	85.8627	8.51530e-5
0.0209612	0.199447	9.51503	10.0001	7.20235	788.455	96.49	85.8500	8.50907e-5
0.0201093	0.188020	9.34990	10.0001	6.78205	795.266	96.68	85.8581	8.50081e-5
0.0193051	0.177194	9.17861	10.0001	6.39561	802.101	96.94	85.8650	8.50435e-5
0.0184953	0.166786	9.01778	10.0001	6.01941	808.958	97.13	85.8858	8.50497e-5
0.0175144	0.156912	8.95905	10.0001	5.66505	815.884	97.36	85.9850	8.50919e-5
0.0170865	0.147807	8.65055	10.0001	5.32799	822.550	97.66	85.9041	8.49442e-5
0.0162486	0.139590	8.59087	10.0001	5.02994	829.378	97.79	86.0069	8.49328e-5
0.0157223	0.131228	8.34666	10.0001	4.73379	836.217	98.07	85.9823	8.50138e-5
0.0150423	0.123545	8.21321	10.0001	4.45647	843.168	98.26	86.0477	8.50157e-5
0.0144754	0.116692	8.06135	10.0001	4.20309	849.923	98.55	86.0939	8.48979e-5
0.0139111	0.110470	7.94113	10.0001	3.97572	856.681	98.73	86.1664	8.48363e-5
0.0133783	0.104721	7.82763	10.0001	3.76631	863.533	98.93	86.2472	8.47859e-5
0.0129143	0.0988882	7.65726	10.0001	3.56124	870.329	99.24	86.2945	8.48993e-5
0.0123831	0.0932951	7.53407	10.0001	3.35796	877.174	99.46	86.3985	8.48657e-5
0.0118921	0.0877925	7.38243	10.0001	3.16402	883.974	99.68	86.4929	8.49842e-5
0.0114466	0.0832511	7.27300	10.0001	2.99252	890.829	99.90	86.6080	8.47743e-5
0.0111161	0.0792723	7.13130	10.0001	2.84509	897.604	100.12	86.6765	8.46476e-5
0.0106828	0.0752728	7.04619	10.0001	2.70369	904.405	100.30	86.8293	8.47277e-5
0.0103430	0.0712702	6.89065	10.0001	2.56138	911.244	100.61	86.9244	8.47861e-5
9.93687e-3	0.0673568	6.77848	10.0001	2.42226	918.166	100.76	87.0908	8.48512e-5
9.55049e-3	0.0641757	6.71962	10.0001	2.30094	924.993	101.00	87.2911	8.46096e-5
9.23480e-3	0.0607071	6.57373	10.0001	2.18110	931.728	101.22	87.4344	8.47985e-5
8.87337e-3	0.0573559	6.46382	10.0001	2.06201	938.475	101.51	87.6447	8.48577e-5
8.54087e-3	0.0543027	6.35798	10.0001	1.94965	945.478	101.75	87.8625	8.47527e-5
8.18849e-3	0.0514269	6.28038	10.0001	1.84707	952.151	101.90	88.1363	8.48077e-5
7.95965e-3	0.0487506	6.12472	10.0001	1.74886	958.970	102.15	88.3028	8.47125e-5
7.66319e-3	0.0464242	6.05808	10.0001	1.66332	965.662	102.35	88.5840	8.46222e-5
7.38569e-3	0.0440814	5.96849	10.0001	1.58073	972.403	102.62	88.8691	8.47002e-5
7.07697e-3	0.0418875	5.91885	10.0001	1.50216	979.261	102.82	89.2325	8.47171e-5
6.85391e-3	0.0396739	5.78851	10.0001	1.42324	986.202	103.08	89.5114	8.47445e-5
6.58074e-3	0.0377855	5.74184	10.0001	1.35377	992.920	103.29	89.9012	8.46384e-5
6.37884e-3	0.0360682	5.65435	10.0001	1.29078	999.731	103.54	90.2174	8.45425e-5
6.13549e-3	0.0343087	5.59185	10.0001	1.22930	1006.56	103.76	90.6350	8.46391e-5
5.91354e-3	0.0326693	5.52449	10.0001	1.17021	1013.44	103.99	91.0566	8.46084e-5
5.69046e-3	0.0310490	5.45632	10.0001	1.11334	1020.26	104.21	91.5236	8.46840e-5
5.48961e-3	0.0294944	5.37276	10.0001	1.05823	1027.05	104.47	91.9942	8.47161e-5
5.26145e-3	0.0281313	5.34668	10.0001	1.00841	1033.85	104.73	92.5527	8.45936e-5
5.13177e-3	0.0269153	5.24483	10.0001	0.963265	1040.67	104.85	92.9444	8.44357e-5
4.92846e-3	0.0256713	5.20879	10.0001	0.920883	1047.56	105.13	93.5391	8.45822e-5
4.73138e-3	0.0244211	5.16152	10.0001	0.877335	1054.33	105.34	94.1805	8.46458e-5
4.54810e-3	0.0233165	5.12663	10.0001	0.837479	1061.24	105.55	94.8258	8.45559e-5
4.38340e-3	0.0223050	5.08851	10.0001	0.801493	1067.96	105.84	95.4635	8.45093e-5
4.28957e-3	0.0214223	4.99405	10.0001	0.768595	1074.80	105.98	95.9344	8.43045e-5
4.10389e-3	0.0204340	4.97918	10.0001	0.736625	1081.73	106.24	96.7348	8.45813e-5
3.92662e-3	0.0193827	4.93622	10.0001	0.701317	1088.43	106.47	97.6107	8.47263e-5
3.78764e-3	0.0185008	4.88452	10.0001	0.669291	1095.42	106.66	98.3911	8.45511e-5
3.66630e-3	0.0176993	4.82757	10.0001	0.641076	1102.15	106.88	99.1489	8.44825e-5
3.55331e-3	0.0169800	4.77865	10.0001	0.615658	1108.94	107.14	99.9012	8.43886e-5
3.40774e-3	0.0162108	4.75705	10.0001	0.590913	1115.73	107.39	100.857	8.45754e-5
3.29552e-3	0.0154991	4.70308	10.0001	0.566254	1122.57	107.63	101.742	8.45092e-5
3.12723e-3	0.0148013	4.73303	10.0001	0.543583	1129.41	107.82	102.899	8.45760e-5
3.01090e-3	0.0141738	4.70751	10.0001	0.521954	1136.23	108.06	103.894	8.44561e-5
2.89645e-3	0.0135823	4.68929	10.0001	0.502303	1142.97	108.33	104.923	8.44176e-5
2.80631e-3	0.0130545	4.65185	10.0001	0.484311	1149.88	108.47	105.868	8.43101e-5
2.68624e-3	0.0124812	4.64634	10.0001	0.467056	1156.64	108.74	107.061	8.45131e-5
2.60366e-3	0.0119338	4.58346	10.0001	0.448965	1163.55	108.95	108.155	8.44569e-5
2.50222e-3	0.0114607	4.58023	10.0001	0.433445	1170.45	109.21	109.304	8.43238e-5
2.40759e-3	0.0110348	4.58334	10.0001	0.419887	1177.22	109.48	110.423	8.42406e-5
2.33420e-3	0.0105592	4.52370	10.0001	0.405287	1184.14	109.66	111.607	8.43009e-5
2.24872e-3	0.0101235	4.50191	10.0001	0.391702	1190.82	109.92	112.859	8.42264e-5
2.14015e-3	9.69785e-3	4.53140	10.0001	0.379660	1197.60	110.09	114.291	8.43038e-5
2.07528e-3	9.37128e-3	4.51567	10.0001	0.369014	1204.19	110.18	115.360	8.40655e-5

[step]
Temperature ramp - 3
Storage modulus	Loss modulus	Tan(delta)	Angular frequency	Oscillation torque	Step time	Temperature	Raw phase	Oscillation displacement
MPa	MPa		rad/s	µN.m	s	°C	°	rad
2.30636e-3	0.0105905	4.59188	10.0001	1.14100	6.02644	109.69	111.684	2.36540e-4
2.39941e-3	0.0110197	4.59268	10.0001	1.16717	12.7971	109.41	110.490	2.34411e-4
2.54375e-3	0.0116165	4.56667	10.0001	1.21203	19.5512	109.08	108.883	2.33242e-4
2.65070e-3	0.0122287	4.61340	10.0001	1.26639	26.3639	108.88	107.547	2.33297e-4
2.79603e-3	0.0129035	4.61492	10.0001	1.32399	33.2702	108.71	106.085	2.32915e-4
2.93589e-3	0.0136457	4.64789	10.0001	1.38910	40.1300	108.43	104.704	2.32623e-4
3.04872e-3	0.0142995	4.69035	10.0001	1.45391	46.9819	108.26	103.632	2.33433e-4
3.17498e-3	0.0149787	4.71773	10.0001	1.51602	53.7516	108.03	102.577	2.33377e-4
3.31892e-3	0.0157544	4.74686	10.0001	1.58533	60.5486	107.72	101.476	2.32997e-4
3.48738e-3	0.0166580	4.77663	10.0001	1.66631	67.2367	107.53	100.308	2.32517e-4
3.65086e-3	0.0175487	4.80674	10.0001	1.75290	73.9467	107.30	99.2752	2.32901e-4
3.79798e-3	0.0184220	4.85047	10.0001	1.83801	80.8127	107.08	98.3965	2.33202e-4
3.94975e-3	0.0193199	4.89141	10.0001	1.92374	87.7109	106.88	97.5695	2.33206e-4
4.11446e-3	0.0202705	4.92663	10.0001	2.01521	94.3939	106.61	96.7593	2.33249e-4
4.29443e-3	0.0213336	4.96773	10.0001	2.11518	101.221	106.39	95.9464	2.32973e-4
4.43194e-3	0.0223809	5.04991	10.0001	2.21958	107.975	106.20	95.3221	2.33296e-4
4.64473e-3	0.0235269	5.06528	10.0001	2.32783	114.838	106.00	94.5495	2.33025e-4
4.81346e-3	0.0246880	5.12895	10.0001	2.44369	121.633	105.81	93.9453	2.33279e-4
4.99542e-3	0.0258946	5.18366	10.0001	2.56079	128.553	105.50	93.3621	2.33238e-4
5.20423e-3	0.0271713	5.22099	10.0001	2.68518	135.220	105.32	92.7649	2.33200e-4
5.40352e-3	0.0285096	5.27611	10.0001	2.81714	142.205	105.11	92.2351	2.33264e-4
5.58482e-3	0.0298566	5.34603	10.0001	2.95152	148.935	104.87	91.7870	2.33436e-4
5.80081e-3	0.0313611	5.40633	10.0001	3.09497	155.766	104.71	91.3065	2.33083e-4
6.02407e-3	0.0330321	5.48336	10.0001	3.25633	162.694	104.36	90.8544	2.32888e-4
6.27456e-3	0.0347755	5.54230	10.0001	3.42870	169.594	104.15	90.3982	2.32931e-4
6.51727e-3	0.0366133	5.61788	10.0001	3.61010	176.268	103.95	89.9988	2.32962e-4
6.72772e-3	0.0384297	5.71215	10.0001	3.79356	183.116	103.73	89.6838	2.33200e-4
6.99302e-3	0.0403137	5.76485	10.0001	3.97934	189.896	103.48	89.3220	2.33190e-4
7.28562e-3	0.0424959	5.83284	10.0001	4.18907	196.718	103.25	88.9616	2.32836e-4
7.59976e-3	0.0451866	5.94579	10.0001	4.44012	203.725	103.01	88.6257	2.32082e-4
7.85757e-3	0.0474774	6.04225	10.0001	4.68554	210.455	102.73	88.3816	2.33088e-4
8.18046e-3	0.0498558	6.09451	10.0001	4.92251	217.180	102.59	88.0875	2.33147e-4
8.46130e-3	0.0525270	6.20790	10.0001	5.18185	223.999	102.36	87.8783	2.32915e-4
8.75117e-3	0.0553236	6.32185	10.0001	5.45820	230.968	102.13	87.6852	2.32894e-4
9.09690e-3	0.0580655	6.38299	10.0001	5.73737	237.746	101.94	87.4534	2.33198e-4
9.44816e-3	0.0613074	6.48882	10.0001	6.04492	244.531	101.62	87.2604	2.32682e-4
9.77891e-3	0.0648876	6.63546	10.0001	6.39235	251.432	101.40	87.1197	2.32451e-4
0.0101737	0.0685798	6.74089	10.0001	6.75784	258.110	101.15	86.9452	2.32475e-4
0.0106624	0.0728038	6.82806	10.0001	7.16457	264.963	101.00	86.7385	2.32129e-4
0.0110694	0.0768441	6.94205	10.0001	7.58195	271.788	100.75	86.6067	2.32696e-4
0.0114048	0.0808846	7.09217	10.0001	7.98951	278.765	100.54	86.5388	2.32942e-4
0.0118120	0.0850730	7.20222	10.0001	8.40243	285.621	100.35	86.4350	2.32883e-4
0.0122707	0.0896991	7.31003	10.0001	8.85440	292.321	100.07	86.3266	2.32747e-4
0.0127935	0.0949575	7.42230	10.0001	9.36075	299.218	99.79	86.2149	2.32403e-4
0.0132224	0.100487	7.59971	10.0001	9.90723	305.958	99.61	86.1784	2.32408e-4
0.0137111	0.105985	7.72986	10.0001	10.4607	312.903	99.41	86.1126	2.32640e-4
0.0143107	0.112239	7.84299	10.0001	11.0630	319.612	99.16	86.0234	2.32303e-4
0.0148653	0.119025	8.00686	10.0001	11.7249	326.406	98.93	85.9832	2.32152e-4
0.0153930	0.125347	8.14309	10.0001	12.3809	333.184	98.65	85.9447	2.32773e-4
0.0159580	0.132093	8.27753	10.0001	13.0443	339.896	98.46	85.9068	2.32716e-4
0.0166509	0.139867	8.39996	10.0001	13.7892	346.751	98.29	85.8506	2.32314e-4
0.0173859	0.149022	8.57143	10.0001	14.6557	353.486	98.05	85.8226	2.31717e-4
0.0180802	0.158998	8.79402	10.0001	15.6223	360.450	97.75	85.8345	2.31540e-4
0.0189924	0.170641	8.98466	10.0001	16.7206	367.160	97.57	85.8120	2.30886e-4
0.0198241	0.180881	9.12427	10.0001	17.8141	374.013	97.31	85.7854	2.32050e-4
0.0207124	0.191332	9.23760	10.0001	18.8655	380.843	97.12	85.7495	2.32321e-4
0.0215497	0.202480	9.39595	10.0001	19.9628	387.559	96.92	85.7461	2.32289e-4
0.0225396	0.215785	9.57363	10.0001	21.2120	394.353	96.62	85.7451	2.31606e-4
0.0233530	0.229146	9.81230	10.0001	22.5497	401.176	96.40	85.7890	2.31870e-4
0.0243176	0.242481	9.97145	10.0001	23.8867	408.016	96.21	85.7920	2.32109e-4
0.0254743	0.256622	10.0738	10.0001	25.2833	414.827	96.03	85.7651	2.32133e-4
0.0266891	0.273832	10.2601	10.0001	26.8898	421.776	95.71	85.7764	2.31394e-4
0.0277804	0.292078	10.5138	10.0001	28.6696	428.464	95.49	85.8249	2.31303e-4
0.0295364	0.312462	10.5789	10.0001	30.6308	435.258	95.24	85.7745	2.30987e-4
0.0308818	0.333829	10.8099	10.0001	32.7549	442.198	95.05	85.8126	2.31189e-4
0.0321903	0.354767	11.0209	10.0001	34.8620	448.931	94.84	85.8472	2.31574e-4
0.0336714	0.376880	11.1929	10.0001	37.0325	455.734	94.66	85.8642	2.31534e-4
0.0357607	0.402571	11.2574	10.0001	39.4643	462.639	94.40	85.8296	2.30993e-4
0.0376273	0.429223	11.4072	10.0001	42.1214	469.590	94.15	85.8377	2.31236e-4
0.0393686	0.457999	11.6336	10.0001	44.9146	476.322	93.89	85.8795	2.31107e-4
0.0411164	0.485529	11.8086	10.0001	47.7199	483.146	93.78	85.9050	2.31604e-4
0.0435891	0.516547	11.8504	10.0001	50.6915	489.982	93.46	85.8750	2.31273e-4
0.0460719	0.551636	11.9734	10.0001	54.0454	496.765	93.26	85.8773	2.30885e-4
0.0483081	0.588411	12.1804	10.0001	57.6419	503.556	93.00	85.9147	2.30872e-4
0.0512680	0.629242	12.2736	10.0001	61.5558	510.523	92.80	85.9076	2.30531e-4
0.0548160	0.673605	12.2885	10.0001	65.8716	517.268	92.55	85.8726	2.30444e-4
0.0581593	0.723007	12.4315	10.0001	70.6012	524.099	92.30	85.8864	2.30123e-4
0.0615124	0.773995	12.5828	10.0001	75.6223	530.881	92.12	85.9057	2.30259e-4
0.0662646	0.830504	12.5331	10.0001	81.0390	537.671	91.93	85.8529	2.29946e-4
0.0706008	0.889164	12.5943	10.0001	86.8611	544.495	91.67	85.8432	2.30220e-4
0.0748413	0.952473	12.7266	10.0001	92.9607	551.315	91.45	85.8600	2.29981e-4
0.0805514	1.01945	12.6559	10.0001	99.4960	558.136	91.18	85.8068	2.29980e-4
0.0864699	1.08892	12.5931	10.0001	106.399	565.036	90.94	85.7584	2.30251e-4
0.0924494	1.16470	12.5983	10.0001	113.707	571.846	90.72	85.7351	2.30032e-4
0.0990307	1.25394	12.6622	10.0001	121.925	578.611	90.50	85.7318	2.29121e-4
0.106596	1.34309	12.5998	10.0001	130.853	585.367	90.31	85.6864	2.29561e-4
0.115806	1.44203	12.4521	10.0001	140.301	592.088	90.07	85.6100	2.29225e-4
0.126466	1.55179	12.2704	10.0001	150.828	598.910	89.82	85.5198	2.28990e-4
0.137892	1.67561	12.1516	10.0001	162.555	605.516	89.65	85.4519	2.28510e-4
0.147712	1.79319	12.1398	10.0001	174.666	612.455	89.42	85.4283	2.29431e-4
0.159541	1.91710	12.0163	10.0001	186.658	619.188	89.20	85.3619	2.29307e-4
0.174784	2.05457	11.7549	10.0001	199.785	625.975	88.96	85.2383	2.29006e-4
0.191323	2.20897	11.5458	10.0001	214.440	632.804	88.69	85.1320	2.28589e-4
0.207019	2.37857	11.4896	10.0001	230.546	639.621	88.51	85.0893	2.28213e-4
0.228152	2.55405	11.1945	10.0001	247.803	646.511	88.24	84.9413	2.28406e-4
0.251400	2.74857	10.9330	10.0001	266.362	653.410	88.00	84.8021	2.28086e-4
0.275068	2.95150	10.7301	10.0001	286.288	660.265	87.78	84.6866	2.28268e-4
0.301791	3.18423	10.5511	10.0001	307.792	666.957	87.56	84.5786	2.27431e-4
0.333805	3.43535	10.2915	10.0001	331.840	673.795	87.32	84.4246	2.27244e-4
0.371418	3.70010	9.96208	10.0001	357.767	680.597	87.12	84.2242	2.27387e-4
0.408155	3.97353	9.73536	10.0001	384.852	687.452	86.84	84.0741	2.27736e-4
0.445041	4.24976	9.54914	10.0001	412.302	694.389	86.66	83.9438	2.28071e-4
0.495252	4.57705	9.24185	10.0001	441.946	701.082	86.46	83.7275	2.26897e-4
0.556880	4.95590	8.89941	10.0001	476.984	707.905	86.23	83.4709	2.26088e-4
0.617078	5.34814	8.66689	10.0001	515.614	714.731	86.01	83.2797	2.26394e-4
0.685933	5.76574	8.40569	10.0001	555.794	721.581	85.74	83.0558	2.26288e-4
0.765201	6.19729	8.09891	10.0001	598.541	728.418	85.52	82.7801	2.26606e-4
0.852837	6.66733	7.81782	10.0001	643.645	735.263	85.31	82.5073	2.26403e-4
0.953626	7.22694	7.57838	10.0001	693.776	742.043	85.05	82.2536	2.25030e-4
1.07057	7.79641	7.28250	10.0001	750.566	748.855	84.83	81.9260	2.25521e-4
1.19524	8.37677	7.00845	10.0001	808.943	755.714	84.65	81.5985	2.26079e-4
1.32448	8.99079	6.78815	10.0001	868.799	762.527	84.35	81.3118	2.26096e-4
1.47767	9.68083	6.55143	10.0001	932.855	769.327	84.12	80.9839	2.25328e-4
1.65961	10.4235	6.28069	10.0001	1004.63	776.251	83.96	80.5843	2.25155e-4
1.86517	11.2337	6.02290	10.0001	1082.60	783.002	83.72	80.1700	2.24909e-4
2.08909	12.1197	5.80145	10.0001	1167.12	789.972	83.43	79.7803	2.24560e-4
2.34194	13.0691	5.58046	10.0001	1258.86	796.821	83.23	79.3620	2.24385e-4
2.64798	14.1217	5.33303	10.0001	1358.63	803.504	82.96	78.8584	2.23846e-4
2.97840	15.2111	5.10714	10.0001	1468.30	810.339	82.77	78.3561	2.24298e-4
3.34037	16.4036	4.91071	10.0001	1581.76	817.192	82.53	77.8767	2.23777e-4
3.71764	17.5730	4.72691	10.0001	1702.52	824.008	82.35	77.3951	2.24535e-4
4.15313	18.8181	4.53107	10.0001	1824.43	830.850	82.13	76.8452	2.24324e-4
4.67308	20.2897	4.34181	10.0001	1956.73	837.708	81.83	76.2626	2.22769e-4
5.25294	21.8658	4.16259	10.0001	2110.21	844.415	81.64	75.6624	2.22549e-4
5.91426	23.5008	3.97358	10.0001	2275.59	851.265	81.43	74.9809	2.22782e-4
6.63002	25.2766	3.81245	10.0001	2449.10	858.082	81.19	74.3400	2.22461e-4
7.37804	27.0472	3.66591	10.0001	2635.28	864.993	80.96	73.7105	2.23233e-4
8.27414	29.0232	3.50769	10.0001	2824.93	871.712	80.80	72.9799	2.22433e-4
9.35906	31.3048	3.34487	10.0001	3039.25	878.689	80.55	72.1592	2.21213e-4
10.6587	33.9095	3.18139	10.0001	3287.05	885.530	80.26	71.2545	2.20125e-4
11.9630	36.4573	3.04751	10.0001	3567.89	892.257	80.11	70.4396	2.21529e-4
13.4093	39.1570	2.92014	10.0001	3845.27	899.231	79.79	69.5994	2.21567e-4
14.8776	41.7126	2.80372	10.0001	4139.73	906.034	79.58	68.7762	2.23163e-4
16.5008	44.3805	2.68960	10.0001	4423.99	912.822	79.37	67.9095	2.23313e-4
18.6044	47.7619	2.56724	10.0001	4725.96	919.685	79.17	66.8951	2.20696e-4
20.8811	51.2948	2.45652	10.0001	5106.16	926.463	78.94	65.8941	2.21046e-4
23.2652	54.7003	2.35116	10.0001	5505.07	933.298	78.74	64.8760	2.22402e-4
25.7152	58.0611	2.25786	10.0001	5896.66	940.079	78.48	63.9035	2.23367e-4
28.1441	61.3627	2.18030	10.0001	6285.84	946.851	78.23	63.0311	2.24365e-4
31.0502	65.0034	2.09350	10.0001	6671.25	953.702	78.05	62.0034	2.23600e-4
34.4238	69.0271	2.00521	10.0001	7104.70	960.581	77.75	60.8835	2.22941e-4
38.0448	73.2258	1.92472	10.0001	7588.05	967.448	77.57	59.7819	2.23121e-4
41.7509	77.3735	1.85322	10.0001	8094.79	974.214	77.33	58.7351	2.23967e-4
45.8495	81.5816	1.77933	10.0001	8601.45	981.025	77.19	57.5996	2.24204e-4
50.8445	86.5161	1.70158	10.0001	9131.08	988.003	76.81	56.3192	2.22747e-4
55.5358	91.0134	1.63882	10.0001	9753.87	994.834	76.68	55.2120	2.24655e-4
60.1796	95.2689	1.58308	10.0001	10327.2	1001.62	76.47	54.1754	2.25776e-4
66.3134	100.499	1.51551	10.0001	10882.6	1008.42	76.24	52.8571	2.23594e-4
72.5976	105.522	1.45352	10.0001	11578.2	1015.26	76.01	51.5783	2.24581e-4
80.0615	111.289	1.39004	10.0001	12264.8	1022.06	75.64	50.1818	2.23401e-4
86.7707	116.306	1.34039	10.0001	13057.4	1028.97	75.48	49.0225	2.25716e-4
93.1219	120.612	1.29520	10.0001	13755.4	1035.72	75.32	47.9368	2.27378e-4
100.009	125.173	1.25162	10.0001	14383.2	1042.59	75.10	46.8387	2.27172e-4
107.478	129.906	1.20868	10.0001	15053.9	1049.33	74.82	45.7107	2.27059e-4
115.840	134.769	1.16341	10.0001	15764.0	1056.12	74.62	44.4836	2.26820e-4
125.074	139.865	1.11826	10.0001	16525.0	1063.06	74.40	43.2064	2.26574e-4
135.502	145.391	1.07298	10.0001	17343.1	1069.85	74.14	41.8641	2.25995e-4
146.075	150.617	1.03109	10.0001	18244.9	1076.76	73.86	40.5750	2.26732e-4
156.209	155.108	0.992954	10.0001	19129.0	1083.45	73.63	39.3723	2.28053e-4
167.196	159.760	0.955525	10.0001	19941.0	1090.28	73.50	38.1470	2.27862e-4
177.635	164.040	0.923470	10.0001	20801.3	1097.03	73.26	37.0595	2.28828e-4
187.980	167.798	0.892638	10.0001	21606.7	1103.88	73.04	35.9976	2.29522e-4
199.448	171.620	0.860473	10.0001	22373.5	1110.72	72.76	34.8654	2.29218e-4
212.058	175.762	0.828843	10.0001	23199.7	1117.47	72.58	33.7119	2.28807e-4
224.569	179.460	0.799128	10.0001	24097.6	1124.11	72.31	32.6078	2.29425e-4
237.645	182.836	0.769366	10.0001	24961.8	1131.01	72.06	31.4863	2.29639e-4
250.608	185.917	0.741863	10.0001	25833.6	1137.77	71.87	30.4274	2.30119e-4
262.751	188.540	0.717559	10.0001	26677.9	1144.62	71.67	29.4758	2.30923e-4
275.224	191.018	0.694046	10.0001	27453.1	1151.40	71.45	28.5399	2.31042e-4
288.359	193.094	0.669630	10.0001	28234.9	1158.22	71.18	27.5646	2.31134e-4
302.647	195.300	0.645307	10.0001	29030.4	1165.08	70.97	26.5707	2.30817e-4
317.465	197.413	0.621841	10.0001	29886.4	1171.88	70.73	25.5958	2.30855e-4
331.237	198.818	0.600230	10.0001	30759.4	1178.71	70.52	24.6980	2.31697e-4
344.801	199.926	0.579831	10.0001	31544.6	1185.65	70.25	23.8429	2.32032e-4
359.294	200.863	0.559049	10.0001	32302.7	1192.35	70.04	22.9637	2.31888e-4
373.919	201.813	0.539724	10.0001	33098.4	1199.34	69.82	22.1332	2.32006e-4
385.446	201.988	0.524037	10.0001	33893.3	1206.05	69.79	21.4656	2.33412e-4

[step]
Temperature ramp - 4
Storage modulus	Loss modulus	Tan(delta)	Angular frequency	Oscillation torque	Step time	Temperature	Raw phase	Oscillation displacement
MPa	MPa		rad/s	µN.m	s	°C	°	rad
364.844	201.284	0.551699	10.0001	33999.5	6.19890	70.22	22.6477	2.41837e-4
353.434	200.087	0.566123	10.0001	33378.3	12.8530	70.53	23.2759	2.42075e-4
335.471	198.067	0.590415	10.0001	32729.1	19.7323	70.86	24.3206	2.45021e-4
317.469	195.846	0.616899	10.0001	31704.2	26.5656	71.15	25.4406	2.45415e-4
301.249	193.857	0.643512	10.0001	30662.1	33.2926	71.34	26.5390	2.44907e-4
286.266	191.355	0.668449	10.0001	29716.2	40.1172	71.54	27.5659	2.44839e-4
273.871	188.970	0.689994	10.0001	28809.6	46.8662	71.74	28.4441	2.43890e-4
259.809	186.280	0.716989	10.0001	28034.9	53.7168	71.97	29.5172	2.45027e-4
245.866	183.194	0.745095	10.0001	27155.0	60.6395	72.23	30.6194	2.45462e-4
230.911	179.541	0.777533	10.0001	26255.3	67.4011	72.45	31.8641	2.46570e-4
216.668	175.310	0.809118	10.0001	25267.9	74.2464	72.65	33.0667	2.46936e-4
202.665	171.159	0.844541	10.0001	24282.4	81.0453	72.88	34.3635	2.47222e-4
189.212	166.758	0.881326	10.0001	23307.0	87.9066	73.16	35.6747	2.47533e-4
177.145	162.211	0.915693	10.0001	22342.9	94.7129	73.32	36.8791	2.47319e-4
166.438	157.953	0.949020	10.0001	21438.8	101.550	73.57	38.0115	2.46757e-4
155.194	153.335	0.988018	10.0001	20615.3	108.441	73.81	39.2880	2.47813e-4
143.997	148.344	1.03019	10.0001	19738.5	115.260	74.01	40.6229	2.48599e-4
132.944	142.747	1.07374	10.0001	18836.0	122.058	74.31	41.9692	2.49633e-4
122.551	137.379	1.12099	10.0001	17898.1	128.872	74.52	43.3563	2.49675e-4
113.032	132.128	1.16895	10.0001	17005.0	135.665	74.70	44.7041	2.49593e-4
104.622	127.055	1.21442	10.0001	16161.5	142.488	74.91	45.9382	2.49223e-4
96.5854	121.859	1.26167	10.0001	15381.7	149.341	75.19	47.1721	2.49736e-4
89.9650	117.478	1.30582	10.0001	14611.3	155.659	75.35	48.2683	2.48208e-4
82.5440	112.271	1.36013	10.0001	13961.6	162.437	75.62	49.5590	2.50575e-4
75.5899	107.181	1.41793	10.0001	13212.4	169.295	75.86	50.8583	2.50770e-4
69.0710	102.112	1.47836	10.0001	12492.9	176.142	76.05	52.1475	2.51172e-4
63.4630	97.3172	1.53345	10.0001	11794.5	183.003	76.33	53.2774	2.50645e-4
58.1861	92.7393	1.59384	10.0001	11157.5	189.907	76.53	54.4401	2.50722e-4
52.9047	88.0063	1.66349	10.0001	10549.3	196.606	76.78	55.6981	2.51846e-4
47.9008	83.1378	1.73563	10.0001	9927.98	203.490	76.98	56.9329	2.52764e-4
43.4374	78.5458	1.80825	10.0001	9308.72	210.380	77.19	58.1021	2.52574e-4
39.5165	74.3233	1.88082	10.0001	8734.53	217.229	77.43	59.1985	2.52023e-4
35.7554	70.2169	1.96381	10.0001	8211.92	223.984	77.73	60.3600	2.52455e-4
32.4640	66.2507	2.04074	10.0001	7706.34	230.755	77.88	61.3851	2.52460e-4
29.3658	62.4034	2.12504	10.0001	7230.92	237.693	78.09	62.4314	2.52857e-4
26.2148	58.4191	2.22847	10.0001	6770.56	244.507	78.43	63.6112	2.54405e-4
23.4687	54.6380	2.32813	10.0001	6298.15	251.159	78.64	64.6745	2.54353e-4
21.3905	51.6143	2.41295	10.0001	5862.67	257.978	78.76	65.5222	2.51665e-4
19.2589	48.4411	2.51526	10.0001	5514.13	264.625	79.04	66.4704	2.53310e-4
17.2856	45.3741	2.62497	10.0001	5150.28	271.452	79.28	67.4126	2.53636e-4
15.4512	42.4309	2.74612	10.0001	4801.39	278.441	79.56	68.3694	2.53898e-4
13.7808	39.5803	2.87214	10.0001	4468.33	285.224	79.71	69.2904	2.54326e-4
12.3274	36.9042	2.99369	10.0001	4150.70	292.125	79.93	70.1181	2.54240e-4
10.9406	34.2611	3.13157	10.0001	3854.93	298.975	80.20	70.9807	2.55177e-4
9.69671	31.7954	3.27899	10.0001	3564.82	305.801	80.40	71.8250	2.55095e-4
8.64568	29.6764	3.43251	10.0001	3296.70	312.650	80.65	72.6242	2.53480e-4
7.74767	27.7007	3.57536	10.0001	3065.42	319.421	80.91	73.3173	2.53127e-4
6.91377	25.7446	3.72367	10.0001	2851.88	326.189	81.14	73.9870	2.53965e-4
6.15967	23.9959	3.89566	10.0001	2642.96	333.016	81.30	74.6907	2.53145e-4
5.47549	22.2801	4.06906	10.0001	2453.88	339.780	81.53	75.3473	2.53662e-4
4.91621	20.7781	4.22645	10.0001	2273.59	346.691	81.71	75.9018	2.52450e-4
4.38104	19.3554	4.41799	10.0001	2113.92	353.472	81.96	76.5157	2.52449e-4
3.88567	17.9615	4.62251	10.0001	1961.25	360.250	82.17	77.1179	2.52832e-4
3.43466	16.5686	4.82393	10.0001	1812.12	367.124	82.43	77.6687	2.53625e-4
3.05853	15.3623	5.02278	10.0001	1668.78	373.997	82.63	78.1686	2.52252e-4
2.75186	14.3784	5.22495	10.0001	1545.96	380.870	82.85	78.6334	2.49997e-4
2.42436	13.2834	5.47911	10.0001	1437.70	387.635	83.16	79.1693	2.51975e-4
2.13432	12.2073	5.71951	10.0001	1323.22	394.537	83.35	79.6394	2.52678e-4
1.90636	11.3162	5.93602	10.0001	1217.34	401.405	83.54	80.0311	2.50964e-4
1.70655	10.5398	6.17609	10.0001	1128.27	408.189	83.82	80.4288	2.49954e-4
1.50742	9.74916	6.46745	10.0001	1046.38	414.965	84.03	80.8700	2.50883e-4
1.34684	9.01596	6.69416	10.0001	966.058	421.855	84.21	81.1948	2.50637e-4
1.20067	8.33793	6.94441	10.0001	892.673	428.724	84.47	81.5263	2.50575e-4
1.07320	7.74929	7.22074	10.0001	825.640	435.413	84.71	81.8621	2.49536e-4
0.955199	7.18444	7.52140	10.0001	765.264	442.260	84.89	82.1992	2.49651e-4
0.864331	6.69021	7.74034	10.0001	709.757	449.166	85.21	82.4340	2.48729e-4
0.772979	6.21821	8.04448	10.0001	659.636	455.873	85.35	82.7320	2.48878e-4
0.691450	5.76182	8.33296	10.0001	611.561	462.832	85.65	82.9973	2.49114e-4
0.615894	5.31689	8.63281	10.0001	564.995	469.508	85.84	83.2556	2.49527e-4
0.558264	4.93719	8.84383	10.0001	522.293	476.365	86.12	83.4320	2.48475e-4
0.502844	4.58616	9.12045	10.0001	484.772	483.241	86.29	83.6454	2.48350e-4
0.451488	4.26341	9.44304	10.0001	449.805	490.158	86.50	83.8763	2.47991e-4
0.402717	3.92778	9.75320	10.0001	415.945	496.914	86.81	84.0876	2.48995e-4
0.365242	3.63632	9.95592	10.0001	383.776	503.775	87.01	84.2249	2.48204e-4
0.332072	3.39122	10.2123	10.0001	356.289	510.575	87.23	84.3849	2.47106e-4
0.300132	3.16128	10.5330	10.0001	331.737	517.373	87.48	84.5710	2.46895e-4
0.272881	2.93394	10.7517	10.0001	308.338	524.144	87.67	84.6987	2.47317e-4
0.250070	2.72801	10.9090	10.0001	286.354	531.001	87.89	84.7924	2.47029e-4
0.225487	2.52686	11.2062	10.0001	265.596	537.868	88.09	84.9492	2.47433e-4
0.202954	2.33000	11.4805	10.0001	245.171	544.816	88.43	85.0905	2.47731e-4
0.184662	2.16064	11.7005	10.0001	226.482	551.516	88.56	85.2028	2.46830e-4
0.171222	2.01341	11.7591	10.0001	210.496	558.459	88.84	85.2453	2.46178e-4
0.156701	1.87544	11.9682	10.0001	196.003	565.256	88.98	85.3488	2.46146e-4
0.142454	1.74125	12.2232	10.0001	182.112	572.029	89.26	85.4685	2.46357e-4
0.131026	1.61341	12.3137	10.0001	168.769	578.845	89.58	85.5246	2.46408e-4
0.121853	1.50343	12.3381	10.0001	156.839	585.782	89.69	85.5548	2.45755e-4
0.112888	1.40495	12.4455	10.0001	146.335	592.518	89.92	85.6158	2.45384e-4
0.103493	1.30751	12.6338	10.0001	136.342	599.390	90.19	85.7075	2.45683e-4
0.0957622	1.21478	12.6854	10.0001	126.661	606.166	90.39	85.7511	2.45699e-4
0.0895788	1.13084	12.6240	10.0001	117.795	613.059	90.66	85.7552	2.45465e-4
0.0833167	1.05666	12.6825	10.0001	109.888	619.891	90.86	85.8019	2.45032e-4
0.0767787	0.984646	12.8245	10.0001	102.400	626.734	91.10	85.8802	2.45072e-4
0.0720696	0.915941	12.7091	10.0001	95.2878	633.554	91.34	85.8709	2.45169e-4
0.0678050	0.856375	12.6300	10.0001	88.9205	640.352	91.50	85.8733	2.44699e-4
0.0639907	0.808014	12.6271	10.0001	83.5546	646.554	91.72	85.9001	2.43699e-4
0.0596504	0.753698	12.6353	10.0001	78.2829	653.402	92.00	85.9382	2.44772e-4
0.0558641	0.701615	12.5593	10.0001	72.8993	660.236	92.25	85.9495	2.44852e-4
0.0531141	0.657791	12.3845	10.0001	68.1192	667.008	92.43	85.9225	2.44044e-4
0.0497533	0.616733	12.3958	10.0001	63.8641	673.880	92.69	85.9659	2.44058e-4
0.0468914	0.576059	12.2850	10.0001	59.7083	680.811	92.89	85.9685	2.44288e-4
0.0446317	0.539862	12.0959	10.0001	55.8911	687.538	93.09	85.9406	2.43994e-4
0.0425079	0.508328	11.9585	10.0001	52.5187	694.388	93.34	85.9304	2.43494e-4
0.0400360	0.475884	11.8864	10.0001	49.2681	701.211	93.54	85.9526	2.44001e-4
0.0378507	0.445458	11.7688	10.0001	46.0984	708.004	93.83	85.9591	2.43873e-4
0.0361517	0.416566	11.5227	10.0001	43.1335	714.829	94.01	85.9147	2.44022e-4
0.0343560	0.391130	11.3846	10.0001	40.4350	721.590	94.26	85.9136	2.43634e-4
0.0326969	0.368616	11.2737	10.0001	38.0407	728.257	94.46	85.9232	2.43194e-4
0.0311398	0.346660	11.1324	10.0001	35.7871	735.137	94.69	85.9237	2.43285e-4
0.0299207	0.325583	10.8815	10.0001	33.6325	741.980	94.97	85.8759	2.43422e-4
0.0284920	0.305344	10.7168	10.0001	31.5756	748.699	95.13	85.8718	2.43677e-4
0.0270342	0.286518	10.5984	10.0001	29.6046	755.550	95.39	85.8930	2.43488e-4
0.0258495	0.269249	10.4160	10.0001	27.7974	762.290	95.57	85.8827	2.43293e-4
0.0249708	0.255534	10.2333	10.0001	26.2823	769.132	95.77	85.8596	2.42373e-4
0.0238255	0.240363	10.0884	10.0001	24.8032	775.993	96.01	85.8719	2.43166e-4
0.0226649	0.225469	9.94794	10.0001	23.2819	782.825	96.36	85.8947	2.43320e-4
0.0217505	0.211315	9.71541	10.0001	21.8236	789.694	96.50	85.8685	2.43358e-4
0.0208998	0.198616	9.50324	10.0001	20.4985	796.588	96.76	85.8504	2.43187e-4
0.0199932	0.186359	9.32110	10.0001	19.2449	803.370	96.96	85.8567	2.43342e-4
0.0190521	0.175116	9.19141	10.0001	18.0697	810.229	97.19	85.8987	2.43144e-4
0.0181870	0.164564	9.04845	10.0001	16.9762	816.988	97.45	85.9372	2.43099e-4
0.0175516	0.154499	8.80254	10.0001	15.9430	823.831	97.67	85.9088	2.43178e-4
0.0167611	0.145166	8.66090	10.0001	14.9775	830.677	97.93	85.9576	2.43127e-4
0.0160490	0.136842	8.52652	10.0001	14.0911	837.496	98.10	86.0102	2.42701e-4
0.0154196	0.129079	8.37108	10.0001	13.2926	844.341	98.40	86.0491	2.42686e-4
0.0148909	0.121748	8.17602	10.0001	12.5337	851.102	98.56	86.0606	2.42642e-4
0.0142602	0.114820	8.05175	10.0001	11.8231	858.083	98.75	86.1378	2.42746e-4
0.0136568	0.108165	7.92022	10.0001	11.1380	864.845	99.01	86.2193	2.42749e-4
0.0131690	0.101879	7.73624	10.0001	10.4941	871.622	99.31	86.2598	2.42807e-4
0.0126199	0.0961492	7.61886	10.0001	9.89255	878.372	99.51	86.3641	2.42570e-4
0.0121320	0.0908859	7.49140	10.0001	9.34429	885.232	99.71	86.4608	2.42417e-4
0.0117186	0.0858891	7.32931	10.0001	8.82977	892.052	100.02	86.5309	2.42430e-4
0.0112983	0.0811710	7.18434	10.0001	8.34681	898.992	100.17	86.6256	2.42509e-4
0.0108286	0.0769378	7.10503	10.0001	7.90239	905.802	100.41	86.7893	2.42271e-4
0.0104206	0.0729126	6.99697	10.0001	7.48413	912.594	100.62	86.9326	2.42155e-4
0.0100963	0.0691240	6.84646	10.0001	7.09216	919.539	100.86	87.0333	2.42078e-4
9.73976e-3	0.0654960	6.72461	10.0001	6.72600	926.335	101.11	87.1807	2.42331e-4
9.35845e-3	0.0622093	6.64739	10.0001	6.37995	933.074	101.31	87.3823	2.42039e-4
9.02531e-3	0.0590773	6.54574	10.0001	6.05553	940.041	101.47	87.5666	2.41951e-4
8.68995e-3	0.0558536	6.42738	10.0001	5.73435	946.738	101.78	87.7697	2.42365e-4
8.37973e-3	0.0528734	6.30968	10.0001	5.42601	953.550	101.99	87.9799	2.42288e-4
8.05085e-3	0.0503137	6.24948	10.0001	5.15329	960.351	102.15	88.2518	2.41862e-4
7.80612e-3	0.0477493	6.11690	10.0001	4.89290	967.144	102.42	88.4517	2.42004e-4
7.51069e-3	0.0452927	6.03043	10.0001	4.64328	974.044	102.69	88.7408	2.42124e-4
7.21012e-3	0.0430477	5.97046	10.0001	4.40908	980.801	102.85	89.0760	2.41949e-4
6.97798e-3	0.0408841	5.85901	10.0001	4.18753	987.551	103.10	89.3524	2.41965e-4
6.72307e-3	0.0388124	5.77302	10.0001	3.97677	994.535	103.38	89.6939	2.42054e-4
6.46993e-3	0.0369160	5.70579	10.0001	3.78011	1001.22	103.54	90.0716	2.41916e-4
6.23344e-3	0.0352003	5.64701	10.0001	3.59993	1008.07	103.77	90.4604	2.41612e-4
6.01785e-3	0.0335001	5.56679	10.0001	3.42882	1015.05	104.00	90.8524	2.41785e-4
5.81097e-3	0.0318075	5.47369	10.0001	3.25933	1021.75	104.31	91.2698	2.42018e-4
5.57217e-3	0.0302206	5.42348	10.0001	3.09706	1028.57	104.49	91.7888	2.41983e-4
5.37876e-3	0.0288218	5.35845	10.0001	2.94955	1035.51	104.75	92.2608	2.41592e-4
5.21333e-3	0.0276174	5.29745	10.0001	2.82256	1042.29	104.96	92.7014	2.41185e-4
5.04092e-3	0.0263353	5.22429	10.0001	2.69814	1049.11	105.13	93.2068	2.41665e-4
4.81089e-3	0.0250369	5.20422	10.0001	2.57075	1055.97	105.42	93.8958	2.41994e-4
4.65250e-3	0.0238964	5.13625	10.0001	2.44964	1062.70	105.61	94.4602	2.41446e-4
4.50821e-3	0.0228790	5.07497	10.0001	2.34543	1069.55	105.83	95.0171	2.41268e-4
4.34742e-3	0.0219275	5.04379	10.0001	2.24952	1076.29	106.05	95.6494	2.41186e-4
4.17423e-3	0.0208954	5.00581	10.0001	2.15119	1083.10	106.28	96.3961	2.41705e-4
4.02941e-3	0.0199281	4.94565	10.0001	2.05373	1089.73	106.53	97.1141	2.41594e-4
3.89286e-3	0.0190622	4.89671	10.0001	1.96629	1096.58	106.73	97.8379	2.41426e-4
3.76527e-3	0.0182985	4.85981	10.0001	1.88835	1103.37	106.96	98.5522	2.41104e-4
3.60221e-3	0.0174686	4.84942	10.0001	1.81145	1110.29	107.20	99.4710	2.41632e-4
3.46289e-3	0.0166914	4.82007	10.0001	1.73420	1117.09	107.43	100.368	2.41452e-4
3.35831e-3	0.0160169	4.76934	10.0001	1.66577	1123.90	107.64	101.155	2.41060e-4
3.25141e-3	0.0153911	4.73367	10.0001	1.60501	1130.82	107.80	101.980	2.41021e-4
3.11229e-3	0.0146862	4.71878	10.0001	1.54221	1137.71	108.14	103.049	2.41660e-4
2.97760e-3	0.0140022	4.70252	10.0001	1.47706	1144.41	108.36	104.185	2.41620e-4
2.86186e-3	0.0133838	4.67660	10.0001	1.41810	1151.20	108.57	105.274	2.41477e-4
2.77775e-3	0.0129247	4.65294	10.0001	1.37003	1158.04	108.76	106.135	2.40561e-4
2.67304e-3	0.0124156	4.64476	10.0001	1.32584	1164.88	108.98	107.201	2.40989e-4
2.57354e-3	0.0119014	4.62453	10.0001	1.27939	1171.72	109.26	108.333	2.41088e-4
2.48659e-3	0.0113746	4.57440	10.0001	1.23214	1178.50	109.50	109.510	2.41221e-4
2.39574e-3	0.0109608	4.57512	10.0001	1.19187	1185.36	109.67	110.608	2.40477e-4
2.28166e-3	0.0104789	4.59265	10.0001	1.15320	1192.23	109.97	112.006	2.41046e-4
2.19226e-3	0.0100132	4.56754	10.0001	1.11223	1199.16	110.17	113.359	2.40906e-4
2.14091e-3	9.70695e-3	4.53403	10.0001	1.08056	1205.91	110.18	114.267	2.39755e-4

[step]
Flow sweep - 5
Stress	Shear rate	Viscosity	Step time	Temperature	Normal stress
MPa	1/s	Pa.s	s	°C	MPa
4.46186e-7	0.0999922	4.46221	34.9702	150.01	1.26556e-3
1.53816e-6	0.125890	12.2183	69.9734	150.01	1.21619e-3
1.30224e-6	0.158482	8.21692	105.080	149.99	1.18318e-3
7.47225e-7	0.199518	3.74515	140.187	150.00	1.16361e-3
1.10330e-6	0.251169	4.39267	175.180	150.00	1.14339e-3
2.63445e-6	0.316220	8.33109	210.230	150.00	1.09668e-3
1.73141e-6	0.398084	4.34935	245.293	150.01	1.08939e-3
3.15748e-6	0.501173	6.30019	280.415	150.01	1.06290e-3
3.62975e-6	0.630925	5.75305	315.429	150.00	1.03561e-3
4.33326e-6	0.794292	5.45550	350.491	150.01	9.96855e-4
5.31700e-6	0.999944	5.31730	385.600	150.00	9.81063e-4
7.01622e-6	1.25886	5.57346	420.701	150.00	9.50761e-4
8.91809e-6	1.58481	5.62722	455.782	150.00	9.25660e-4
1.09229e-5	1.99518	5.47465	490.775	150.00	9.07332e-4
1.41211e-5	2.51176	5.62201	525.812	150.00	8.88041e-4
1.72671e-5	3.16213	5.46060	560.923	150.00	8.58614e-4
2.10340e-5	3.98090	5.28373	596.037	150.01	8.38122e-4
2.62516e-5	5.01163	5.23814	631.095	150.01	8.24630e-4
3.29367e-5	6.30928	5.22036	666.158	150.00	8.23726e-4
4.12937e-5	7.94292	5.19881	701.175	150.00	7.97258e-4
5.11097e-5	9.99957	5.11119	736.290	150.01	7.76304e-4
6.29578e-5	12.5886	5.00116	771.286	150.00	7.56672e-4
7.71449e-5	15.8482	4.86774	806.359	150.00	7.25500e-4
9.64377e-5	19.9517	4.83356	841.489	149.99	7.17916e-4
1.20570e-4	25.1176	4.80021	876.574	150.00	6.85607e-4
1.50540e-4	31.6213	4.76070	911.561	150.01	6.61499e-4
1.88338e-4	39.8089	4.73105	946.666	150.00	6.46771e-4
2.35011e-4	50.1162	4.68933	981.746	149.99	6.44430e-4
2.95397e-4	63.0929	4.68193	1016.80	149.99	6.32751e-4
3.72184e-4	79.4293	4.68572	1051.79	150.00	6.20424e-4
4.77223e-4	99.9958	4.77243	1086.86	149.99	6.21030e-4

[step]
Flow sweep - 6
Stress	Shear rate	Viscosity	Step time	Temperature	Normal stress
MPa	1/s	Pa.s	s	°C	MPa
5.67953e-6	0.100003	56.7937	34.9310	129.99	-2.92091e-4
8.17069e-6	0.125899	64.8986	69.9811	129.99	-3.37125e-4
9.51293e-6	0.158492	60.0215	105.073	130.00	-3.67025e-4
1.13321e-5	0.199536	56.7923	140.156	130.01	-3.61523e-4
1.42163e-5	0.251206	56.5922	175.245	129.99	-3.82026e-4
1.94354e-5	0.316245	61.4568	210.221	130.00	-3.94680e-4
2.26741e-5	0.398124	56.9524	245.329	130.00	-3.97171e-4
2.95998e-5	0.501214	59.0563	280.441	129.99	-4.16380e-4
3.73830e-5	0.630986	59.2453	315.526	130.00	-4.15088e-4
4.61280e-5	0.794366	58.0689	350.525	129.99	-4.15201e-4
5.86644e-5	1.00005	58.6617	385.557	130.00	-4.38335e-4
7.36714e-5	1.25898	58.5166	420.605	130.00	-4.41559e-4
9.28364e-5	1.58497	58.5731	455.713	130.00	-4.39104e-4
1.14140e-4	1.99536	57.2028	490.769	130.00	-4.52974e-4
1.43380e-4	2.51200	57.0779	525.759	130.00	-4.46737e-4
1.81553e-4	3.16244	57.4092	560.873	130.01	-4.33744e-4
2.28921e-4	3.98126	57.4997	595.884	130.00	-4.37862e-4
2.86274e-4	5.01212	57.1163	630.921	130.00	-4.24446e-4
3.57875e-4	6.30986	56.7168	666.007	130.00	-4.28563e-4
4.50357e-4	7.94366	56.6938	701.085	130.00	-4.01457e-4
5.62608e-4	10.0004	56.2584	736.137	130.00	-3.65895e-4
6.97318e-4	12.5898	55.3873	771.165	130.01	-3.36970e-4
8.62313e-4	15.8494	54.4066	806.254	130.00	-2.72813e-4
1.06324e-3	19.9536	53.2860	841.323	130.00	-1.88491e-4
1.32100e-3	25.1200	52.5874	876.352	130.00	-7.70858e-5
1.59934e-3	31.6243	50.5732	911.436	130.01	8.64136e-5
1.93131e-3	39.8124	48.5101	946.498	130.00	3.30282e-4
2.27661e-3	50.1212	45.4222	981.596	130.00	6.33413e-4
2.67654e-3	63.0985	42.4184	1016.62	129.99	1.04467e-3
2.96616e-3	79.4363	37.3401	1051.64	130.01	1.44874e-3
3.65735e-3	100.005	36.5718	1086.68	129.99	2.18656e-3

[step]
Flow sweep - 7
Stress	Shear rate	Viscosity	Step time	Temperature	Normal stress
MPa	1/s	Pa.s	s	°C	MPa
1.99839e-4	0.100004	1998.32	34.9297	110.00	-1.16910e-3
2.54650e-4	0.125894	2022.73	70.0039	110.00	-1.14757e-3
3.16507e-4	0.158493	1996.98	105.084	110.01	-1.12002e-3
3.96204e-4	0.199528	1985.71	140.122	110.00	-1.07097e-3
4.99807e-4	0.251195	1989.71	175.214	109.99	-1.11261e-3
6.25865e-4	0.316234	1979.12	210.252	110.00	-1.06818e-3
7.82223e-4	0.398115	1964.82	245.291	110.01	-1.01200e-3
9.72094e-4	0.501198	1939.54	280.362	110.00	-9.22782e-4
1.21318e-3	0.630971	1922.72	315.482	110.00	-8.37042e-4
1.51816e-3	0.794339	1911.22	350.492	110.00	-6.78638e-4
1.89451e-3	1.00002	1894.47	385.598	109.99	-4.17081e-4
2.34183e-3	1.25895	1860.14	420.631	110.00	-3.55010e-5
2.86431e-3	1.58493	1807.22	455.736	110.00	4.54029e-4
3.45847e-3	1.99531	1733.30	490.787	110.00	1.11560e-3
4.05064e-3	2.51194	1612.55	525.829	110.00	2.05519e-3
4.88398e-3	3.16233	1544.43	560.902	110.00	3.21400e-3
6.08044e-3	3.98115	1527.31	595.996	110.00	5.16338e-3
7.35063e-3	5.01197	1466.62	631.030	109.99	8.55761e-3
9.92121e-3	6.30971	1572.37	666.058	110.00	0.0129291
0.0126618	7.94338	1594.00	701.137	110.00	0.0189646
0.0156145	10.0002	1561.41	736.192	110.01	0.0262229
0.0193267	12.5895	1535.14	771.260	109.98	0.0356835
0.0232564	15.8492	1467.36	806.337	110.01	0.0447418
0.0277699	19.9530	1391.76	841.442	109.99	0.0533831
0.0327042	25.1194	1301.95	876.533	110.00	0.0600578
0.0375416	31.6234	1187.15	911.502	110.00	0.0628136
0.0429496	39.8115	1078.82	946.596	110.01	0.0658761
0.0488288	50.1196	974.246	981.695	109.99	0.0693527
0.0543475	63.0971	861.331	1015.43	110.01	0.0717435
0.0593614	79.4346	747.299	1051.97	110.00	0.0701535
0.0626242	100.002	626.229	1087.06	110.00	0.0671514

[step]
Flow sweep - 8
Stress	Shear rate	Viscosity	Step time	Temperature	Normal stress
MPa	1/s	Pa.s	s	°C	MPa
0.0264698	0.0999984	264702	34.9226	90.00	2.89883e-3
0.0367067	0.125888	291583	69.9507	89.99	0.0195071
0.0454576	0.158495	286808	105.023	90.01	0.0376232
0.0550772	0.199528	276037	140.126	90.00	0.0520055
0.0683430	0.251196	272071	175.126	90.00	0.0670358
0.0862814	0.316236	272839	210.232	90.00	0.0869513
0.106217	0.398118	266798	245.314	90.00	0.110798
0.131425	0.501203	262219	280.407	90.00	0.140737
0.161621	0.630987	256140	315.430	90.00	0.177449
0.198293	0.794372	249623	350.496	90.00	0.220812
0.238817	1.00008	238798	385.548	90.00	0.263520
0.288953	1.25902	229506	420.644	89.99	0.309361
0.343100	1.58501	216466	455.698	89.99	0.353625
0.392347	1.99544	196622	490.729	90.01	0.381378
0.462527	2.51207	184122	525.836	89.99	0.424427
0.509349	3.16262	161053	560.892	90.00	0.431919
0.512429	3.98155	128701	595.970	90.00	0.420575
0.588655	5.01213	117446	631.061	90.00	0.423897
0.631549	6.30988	100089	666.126	90.00	0.375388
0.619085	7.94351	77935.9	701.204	90.01	0.342624
0.416383	10.0003	41637.0	736.158	90.00	0.249596
0.288214	12.5897	22892.8	771.285	90.00	0.192396
0.204661	15.8491	12913.1	806.401	90.00	0.157604
0.156192	19.9534	7827.81	841.533	90.00	0.120368
0.0980991	25.1179	3905.54	876.595	90.00	0.0927248
0.0586530	31.6245	1854.67	911.644	90.00	0.0578263
0.0332874	39.8126	836.101	946.761	90.00	0.0420647
0.0184806	50.1221	368.711	981.893	90.00	0.0306306
0.0186431	63.0858	295.520	1017.00	90.00	0.0340993
5.88802e-3	79.4468	74.1127	1052.05	90.00	0.0132160
8.09593e-4	99.9972	8.09616	1087.13	90.00	1.38078e-3

[step]
Flow sweep - 9
Stress	Shear rate	Viscosity	Step time	Temperature	Normal stress
MPa	1/s	Pa.s	s	°C	MPa
0.688039	0.0975312	7054550	34.9808	70.00	0.669282
1.19187	0.123767	9629970	69.9767	70.00	0.918265
1.91348	0.124902	1.53198e7	105.112	70.00	1.60290
1.98931	0.0707192	2.81297e7	140.196	70.00	1.54490
1.98944	0.0590676	3.36807e7	175.246	70.01	1.38565
1.98944	0.0395804	5.02631e7	210.300	70.00	1.25675
1.98944	0.0331555	6.00032e7	245.335	70.00	1.31806
1.98944	0.0316932	6.27716e7	280.412	70.00	1.23947
1.98944	0.0319538	6.22598e7	315.451	70.00	1.16712
1.98944	0.0278400	7.14597e7	350.571	70.00	1.07198
1.98944	0.0269371	7.38550e7	385.641	69.99	1.01345
1.98944	0.0253930	7.83460e7	420.735	70.00	0.988526
1.98944	0.0211728	9.39618e7	455.807	70.00	0.976019
1.98944	0.0194625	1.02219e8	490.869	70.00	0.967833
1.98944	0.0181834	1.09409e8	525.915	70.00	0.964716
1.98944	0.0182302	1.09129e8	561.071	70.00	0.946742
1.98944	0.0197324	1.00821e8	596.109	69.99	0.940681
1.98944	0.0205108	9.69946e7	631.182	69.99	0.938402
1.98944	0.0209206	9.50945e7	666.227	70.00	1.03253
1.98944	0.0183776	1.08253e8	701.303	70.00	1.01412
1.98944	0.0165636	1.20109e8	736.385	70.00	0.978102
1.98944	0.0158745	1.25323e8	771.382	70.00	0.992209
1.98944	0.0158081	1.25850e8	806.500	70.00	1.02229
1.98944	0.0156589	1.27048e8	841.549	70.00	1.04729
1.98944	0.0161290	1.23345e8	876.614	70.00	1.05378
1.98944	0.0163540	1.21648e8	911.655	70.00	1.05694
1.98944	0.0160052	1.24300e8	946.747	70.00	1.05102
1.98944	0.0149300	1.33251e8	981.833	70.00	1.02900
1.98944	0.0139304	1.42812e8	1016.93	70.00	1.01910
1.98944	0.0132969	1.49617e8	1051.94	70.00	1.02362
1.98944	0.0130034	1.52994e8	1087.06	70.00	1.03227

[step]
Flow sweep - 10
Stress	Shear rate	Viscosity	Step time	Temperature	Normal stress
MPa	1/s	Pa.s	s	°C	MPa
0.578471	0.0976471	5924090	34.9119	60.00	0.667624
0.763538	0.125521	6082960	69.9693	60.00	0.817521
0.596459	0.160513	3715950	105.020	60.00	0.677290
0.295307	0.199745	1478420	140.151	60.00	0.475011
0.332814	0.250988	1326020	175.186	60.01	0.476432
0.273850	0.316879	864210	210.239	60.00	0.356243
0.221781	0.397758	557578	245.284	60.00	0.346866
0.170658	0.501791	340097	280.413	60.00	0.259363
0.176684	0.631356	279848	315.508	60.00	0.263429
0.139604	0.794419	175731	350.506	60.01	0.226767
0.112784	1.00005	112778	385.610	60.00	0.194399
0.0821664	1.25916	65255.1	420.742	60.00	0.149924
0.0680916	1.58508	42957.7	455.826	60.00	0.131119
0.0565720	1.99549	28349.9	490.856	60.00	0.108639
0.0433828	2.51231	17268.1	525.895	60.00	0.0834201
0.0311667	3.16167	9857.68	560.961	60.01	0.0557919
0.0256739	3.97991	6450.87	596.048	60.00	0.0433466
0.0178767	5.01294	3566.11	631.152	60.00	0.0302035
0.0129708	6.30979	2055.67	666.159	60.00	0.0211870
8.03060e-3	7.94166	1011.20	701.267	60.01	0.0116038
4.98353e-3	10.0014	498.281	736.352	59.99	6.02170e-3
2.80125e-3	12.5913	222.475	771.445	60.00	1.77098e-3
1.59941e-3	15.8447	100.942	806.452	60.00	-5.43668e-4
8.59805e-4	19.9523	43.0931	841.530	60.00	-1.96117e-3
2.07452e-3	25.1317	82.5459	876.563	60.00	1.58552e-3
4.27225e-3	31.6298	135.070	911.652	60.00	6.15464e-3
5.94812e-3	39.8116	149.407	946.720	60.00	0.0176946
5.23595e-3	50.1201	104.468	981.762	60.00	0.0145664
5.35911e-3	63.0969	84.9345	1016.81	60.00	0.0163786
5.00487e-3	79.4364	63.0047	1051.92	60.00	0.0144315
0.0106093	99.9985	106.094	1086.95	60.00	0.0298684

[step]
Axial - 11
Step time	Temperature	Normal stress	Axial force	Gap
s	°C	MPa	N	µm
1.04282	150.01	2.71689e-5	6.82830e-4	4668.42
2.04622	149.99	2.42837e-4	6.10316e-3	13751.8
3.05022	149.99	2.43036e-4	6.10816e-3	23752.2
4.05041	150.01	2.41850e-4	6.07836e-3	33751.9

