Filename	LLM_EP0902_5%01_Oscillatory_temperature_ramp 
Instrument name	5333-0626
Operator	LIMING
rundate	30/04/2025
Sample name	LLM_EP0902_5%01_Oscillatory_temperature_ramp 
Geometry name	8.0mm parallel plate, UPP Stainless steel  - 119113 new 30 11 22
Procedure name	Amplitude sweep
	Temperature ramp
	Temperature ramp
	Temperature ramp
	Temperature ramp
	Sample
proceduresegments	Amplitude sweep#Temperature ramp#Temperature ramp#Temperature ramp#Temperature ramp
[step]
Temperature ramp - 2
Storage modulus	Loss modulus	Tan(delta)	Angular frequency	Oscillation torque	Step time	Temperature	Raw phase	Oscillation displacement
MPa	MPa		rad/s	µN.m	s	°C	°	rad
2.03445e-4	2.14354e-3	10.5362	10.0001	0.0702595	6.16019	109.74	162.136	2.50038e-5
2.58040e-4	2.16066e-3	8.37336	10.0001	0.0696115	12.9568	109.42	161.863	2.49397e-5
2.65940e-4	2.28685e-3	8.59912	10.0001	0.0697298	19.8688	109.22	160.858	2.48644e-5
3.51044e-4	2.44138e-3	6.95462	10.0001	0.0692600	26.7160	108.82	159.425	2.47949e-5
2.29979e-4	2.58990e-3	11.2615	10.0001	0.0713348	33.5432	108.61	158.647	2.49410e-5
3.32726e-4	2.68450e-3	8.06820	10.0001	0.0703668	40.3675	108.51	157.625	2.48121e-5
2.97204e-4	2.80623e-3	9.44208	10.0001	0.0714367	47.2106	108.26	156.831	2.49075e-5
3.23081e-4	3.02795e-3	9.37210	10.0001	0.0718026	53.9876	108.01	155.128	2.48034e-5
3.61946e-4	3.18075e-3	8.78790	10.0001	0.0722417	60.1397	107.76	153.901	2.48495e-5
3.80488e-4	3.30033e-3	8.67394	10.0001	0.0726563	67.6581	107.54	152.988	2.48649e-5
3.09094e-4	3.41581e-3	11.0511	10.0001	0.0740350	74.4259	107.31	152.441	2.49373e-5
4.68584e-4	3.57216e-3	7.62331	10.0001	0.0728217	80.5841	107.11	150.780	2.47501e-5
5.13493e-4	3.80934e-3	7.41847	10.0001	0.0737241	87.2383	106.87	149.005	2.47852e-5
5.02098e-4	4.00000e-3	7.96658	10.0001	0.0749490	94.1137	106.73	147.800	2.48287e-5
5.13113e-4	4.23985e-3	8.26299	10.0001	0.0760676	100.922	106.43	146.233	2.47987e-5
5.84634e-4	4.49916e-3	7.69568	10.0001	0.0767191	107.637	106.21	144.337	2.47230e-5
5.41043e-4	4.68205e-3	8.65374	10.0001	0.0786002	114.332	105.99	143.438	2.48680e-5
6.37627e-4	4.94757e-3	7.75934	10.0001	0.0789342	121.178	105.76	141.487	2.47064e-5
6.31561e-4	5.21598e-3	8.25887	10.0001	0.0809281	127.863	105.55	140.029	2.47855e-5
5.37804e-4	5.42323e-3	10.0840	10.0001	0.0833332	134.564	105.33	139.350	2.48917e-5
6.20253e-4	5.84628e-3	9.42564	10.0001	0.0846317	141.362	105.06	136.839	2.46259e-5
6.50084e-4	6.08463e-3	9.35976	10.0001	0.0865933	148.238	104.86	135.558	2.47806e-5
8.51782e-4	6.34744e-3	7.45196	10.0001	0.0866359	155.074	104.62	133.401	2.46617e-5
7.48211e-4	6.74863e-3	9.01969	10.0001	0.0906032	161.286	104.40	132.142	2.47580e-5
7.23410e-4	6.92904e-3	9.57830	10.0001	0.0924566	168.193	104.23	131.504	2.48513e-5
8.41336e-4	7.38733e-3	8.78047	10.0001	0.0941693	175.026	103.96	129.145	2.45859e-5
8.37946e-4	7.70626e-3	9.19660	10.0001	0.0973221	181.238	103.72	127.979	2.47548e-5
8.89237e-4	8.05855e-3	9.06232	10.0001	0.0996176	187.786	103.54	126.510	2.47089e-5
8.74881e-4	8.36537e-3	9.56171	10.0001	0.102393	194.738	103.27	125.558	2.47638e-5
9.21994e-4	8.78483e-3	9.52807	10.0001	0.105154	201.513	103.11	124.029	2.46681e-5
9.50727e-4	9.22620e-3	9.70436	10.0001	0.108553	208.269	102.87	122.615	2.46463e-5
1.03412e-3	9.82335e-3	9.49921	10.0001	0.112611	214.867	102.62	120.647	2.45266e-5
1.00006e-3	0.0103414	10.3409	10.0001	0.117836	221.740	102.43	119.516	2.46600e-5
1.06853e-3	0.0111099	10.3974	10.0001	0.123074	228.613	102.21	117.510	2.44345e-5
1.15192e-3	0.0117308	10.1836	10.0001	0.128770	235.457	101.96	115.925	2.45517e-5
1.20111e-3	0.0123598	10.2904	10.0001	0.134199	241.557	101.74	114.580	2.45556e-5
1.20665e-3	0.0130732	10.8343	10.0001	0.140306	248.292	101.56	113.363	2.44997e-5
1.29319e-3	0.0139460	10.7842	10.0001	0.147244	255.136	101.24	111.743	2.43912e-5
1.46490e-3	0.0149774	10.2242	10.0001	0.155385	261.975	101.07	109.791	2.42765e-5
1.46425e-3	0.0158154	10.8011	10.0001	0.164628	268.822	100.79	108.821	2.45034e-5
1.42818e-3	0.0165947	11.6195	10.0001	0.172422	275.676	100.62	108.106	2.45587e-5
1.56808e-3	0.0173503	11.0646	10.0001	0.178901	282.497	100.39	106.945	2.45297e-5
1.53686e-3	0.0183644	11.9494	10.0001	0.188267	289.195	100.21	106.148	2.44886e-5
1.66575e-3	0.0192413	11.5511	10.0001	0.196703	296.011	99.95	105.090	2.45452e-5
1.76211e-3	0.0204744	11.6192	10.0001	0.206981	302.843	99.64	103.969	2.44002e-5
1.77907e-3	0.0217608	12.2315	10.0001	0.219546	309.731	99.48	103.128	2.44345e-5
1.90560e-3	0.0228936	12.0138	10.0001	0.230770	316.496	99.26	102.198	2.45033e-5
1.99936e-3	0.0243990	12.2034	10.0001	0.243969	323.379	99.01	101.253	2.43877e-5
2.11317e-3	0.0255427	12.0874	10.0001	0.256384	330.164	98.76	100.514	2.45420e-5
2.09128e-3	0.0269737	12.8982	10.0001	0.269914	337.092	98.54	100.014	2.45074e-5
2.27243e-3	0.0284307	12.5112	10.0001	0.283424	343.838	98.41	99.1535	2.44741e-5
2.29547e-3	0.0297479	12.9594	10.0001	0.297505	350.686	98.10	98.7128	2.45852e-5
2.41684e-3	0.0316607	13.1000	10.0001	0.313632	357.442	97.86	97.9781	2.43974e-5
2.51709e-3	0.0336215	13.3573	10.0001	0.332982	364.303	97.66	97.3498	2.44273e-5
2.63245e-3	0.0357394	13.5765	10.0001	0.353401	371.198	97.42	96.7375	2.44241e-5
2.62269e-3	0.0374177	14.2669	10.0001	0.372058	377.988	97.21	96.4519	2.45728e-5
2.79071e-3	0.0394549	14.1380	10.0001	0.390412	384.835	96.98	95.8803	2.44812e-5
2.87014e-3	0.0417607	14.5500	10.0001	0.412611	391.685	96.74	95.4487	2.44605e-5
3.04627e-3	0.0442380	14.5220	10.0001	0.436326	398.441	96.56	94.9184	2.44377e-5
3.20545e-3	0.0465249	14.5143	10.0001	0.459842	405.191	96.32	94.4828	2.45039e-5
3.34914e-3	0.0492730	14.7121	10.0001	0.485640	412.132	96.03	94.0681	2.44509e-5
3.46241e-3	0.0520605	15.0359	10.0001	0.513435	418.867	95.84	93.7266	2.44762e-5
3.57102e-3	0.0548634	15.3635	10.0001	0.541288	425.103	95.64	93.4236	2.44940e-5
3.63458e-3	0.0582834	16.0358	10.0001	0.573467	432.115	95.40	93.1601	2.44320e-5
3.85791e-3	0.0617911	16.0168	10.0001	0.607505	438.920	95.24	92.7741	2.44211e-5
4.10587e-3	0.0661256	16.1051	10.0001	0.647600	445.723	94.88	92.3785	2.43370e-5
4.18455e-3	0.0704577	16.8376	10.0001	0.692080	452.573	94.67	92.1675	2.44098e-5
4.38280e-3	0.0748337	17.0744	10.0001	0.735385	459.410	94.50	91.8892	2.44259e-5
4.57859e-3	0.0796532	17.3969	10.0001	0.781626	466.271	94.24	91.6342	2.43957e-5
4.79978e-3	0.0845363	17.6125	10.0001	0.830158	473.065	94.01	91.3897	2.44166e-5
4.94332e-3	0.0892080	18.0462	10.0001	0.878496	479.300	93.78	91.2245	2.44868e-5
5.19008e-3	0.0946731	18.2412	10.0001	0.929895	485.473	93.61	91.0038	2.44233e-5
5.33243e-3	0.100528	18.8522	10.0001	0.987364	492.252	93.39	90.8636	2.44218e-5
5.60134e-3	0.106939	19.0917	10.0001	1.04914	499.060	93.20	90.6674	2.43961e-5
5.86705e-3	0.113868	19.4081	10.0001	1.11681	505.822	92.94	90.4928	2.43910e-5
6.22782e-3	0.121191	19.4596	10.0001	1.18837	512.803	92.72	90.2916	2.43837e-5
6.34335e-3	0.128943	20.3273	10.0001	1.26517	519.582	92.44	90.2224	2.44010e-5
6.81943e-3	0.136965	20.0846	10.0001	1.34337	526.415	92.24	90.0095	2.43906e-5
7.06069e-3	0.146229	20.7103	10.0001	1.43257	533.221	92.03	89.9139	2.43637e-5
7.59513e-3	0.156189	20.5644	10.0001	1.52837	540.006	91.81	89.7226	2.43349e-5
7.89176e-3	0.167459	21.2194	10.0001	1.63744	546.862	91.62	89.6389	2.43161e-5
8.34455e-3	0.179472	21.5077	10.0001	1.75498	553.628	91.34	89.5178	2.43182e-5
8.73661e-3	0.193474	22.1452	10.0001	1.88711	560.229	91.17	89.4355	2.42554e-5
9.59230e-3	0.207474	21.6292	10.0001	2.02587	567.035	90.92	89.2363	2.42806e-5
9.78139e-3	0.221111	22.6053	10.0001	2.16724	573.743	90.67	89.2334	2.43729e-5
0.0104515	0.234045	22.3935	10.0001	2.29828	579.878	90.45	89.1108	2.44172e-5
0.0112199	0.249221	22.2123	10.0001	2.44109	586.515	90.24	88.9874	2.43571e-5
0.0117489	0.265786	22.6221	10.0001	2.60281	593.285	90.01	88.9352	2.43498e-5
0.0123223	0.283886	23.0384	10.0001	2.77785	599.934	89.79	88.8862	2.43308e-5
0.0133279	0.304313	22.8328	10.0001	2.97145	606.767	89.55	88.7702	2.42773e-5
0.0137899	0.326767	23.6960	10.0001	3.19065	613.513	89.34	88.7721	2.42772e-5
0.0150841	0.348678	23.1156	10.0001	3.40928	620.089	89.12	88.6352	2.43117e-5
0.0161993	0.372831	23.0152	10.0001	3.64342	626.787	88.92	88.5505	2.42962e-5
0.0174550	0.401514	23.0028	10.0001	3.91129	633.645	88.66	88.4729	2.42172e-5
0.0181130	0.430365	23.7599	10.0001	4.20357	640.336	88.52	88.4856	2.42830e-5
0.0191831	0.461367	24.0507	10.0001	4.50326	647.075	88.23	88.4523	2.42656e-5
0.0210103	0.494983	23.5591	10.0001	4.82621	653.837	88.02	88.3437	2.42398e-5
0.0223154	0.529755	23.7394	10.0001	5.17255	660.722	87.79	88.3088	2.42723e-5
0.0237933	0.569640	23.9412	10.0001	5.54974	667.407	87.54	88.2758	2.42192e-5
0.0253591	0.614372	24.2269	10.0001	5.97697	674.394	87.36	88.2521	2.41819e-5
0.0281988	0.660113	23.4093	10.0001	6.42546	681.159	87.09	88.1237	2.41941e-5
0.0312348	0.708330	22.6776	10.0001	6.89798	687.938	86.91	88.0026	2.42036e-5
0.0335229	0.759160	22.6460	10.0001	7.39932	694.099	86.65	87.9601	2.42248e-5
0.0361248	0.811537	22.4648	10.0001	7.91703	700.858	86.48	87.9044	2.42449e-5
0.0391857	0.872821	22.2740	10.0001	8.48875	707.763	86.19	87.8465	2.41723e-5
0.0419497	0.938985	22.3836	10.0001	9.13169	714.492	85.99	87.8249	2.41686e-5
0.0465866	1.01192	21.7212	10.0001	9.82325	721.394	85.74	87.7142	2.41237e-5
0.0519504	1.09080	20.9969	10.0001	10.5826	728.217	85.53	87.5924	2.41082e-5
0.0571054	1.17980	20.6601	10.0001	11.4282	735.140	85.25	87.5176	2.40698e-5
0.0620012	1.27045	20.4908	10.0001	12.3320	741.896	85.09	87.4677	2.41186e-5
0.0655980	1.36810	20.8558	10.0001	13.2821	748.707	84.85	87.4909	2.41235e-5
0.0744470	1.47613	19.8279	10.0001	14.2914	755.598	84.62	87.3238	2.40529e-5
0.0847586	1.60236	18.9050	10.0001	15.4593	762.486	84.39	87.1575	2.39665e-5
0.0938151	1.72960	18.4363	10.0001	16.7384	769.266	84.13	87.0580	2.40403e-5
0.101798	1.86430	18.3138	10.0001	18.0579	776.067	83.97	87.0159	2.40587e-5
0.116943	2.03337	17.3876	10.0001	19.5406	782.891	83.67	86.8260	2.38669e-5
0.130076	2.21594	17.0357	10.0001	21.3111	789.525	83.47	86.7356	2.38827e-5
0.146924	2.39424	16.2958	10.0001	23.1085	796.394	83.25	86.5636	2.39640e-5
0.163303	2.59196	15.8720	10.0001	24.9908	803.207	83.06	86.4503	2.39374e-5
0.180127	2.79395	15.5110	10.0001	26.9928	809.935	82.79	86.3482	2.39834e-5
0.198191	3.00184	15.1463	10.0001	29.0437	816.611	82.63	86.2423	2.40154e-5
0.225207	3.24038	14.3884	10.0001	31.2290	823.364	82.31	86.0255	2.39174e-5
0.251026	3.50924	13.9796	10.0001	33.7654	830.278	82.15	85.8905	2.38749e-5
0.279186	3.79237	13.5837	10.0001	36.5171	837.110	81.90	85.7528	2.38895e-5
0.310959	4.05165	13.0295	10.0001	39.2473	843.277	81.70	85.5583	2.40281e-5
0.346217	4.36693	12.6133	10.0001	42.0766	849.997	81.44	85.3954	2.38961e-5
0.390735	4.70654	12.0454	10.0001	45.3103	856.082	81.26	85.1636	2.38688e-5
0.440070	5.09973	11.5884	10.0001	48.9290	862.834	81.06	84.9565	2.37829e-5
0.504140	5.53425	10.9776	10.0001	52.9920	869.607	80.88	84.6615	2.37227e-5
0.566424	6.00683	10.6048	10.0001	57.5259	876.464	80.59	84.4566	2.37228e-5
0.654407	6.56994	10.0395	10.0001	62.5291	883.300	80.40	84.1289	2.35650e-5
0.751178	7.16173	9.53400	10.0001	68.2868	890.089	80.14	83.8026	2.35967e-5
0.851703	7.74055	9.08832	10.0001	74.2026	896.949	79.86	83.4859	2.37121e-5
0.942916	8.29142	8.79338	10.0001	79.9913	903.076	79.73	83.2534	2.38555e-5
1.07374	8.99479	8.37705	10.0001	85.9594	909.815	79.47	82.9043	2.36169e-5
1.22413	9.75979	7.97286	10.0001	93.2296	916.570	79.27	82.5311	2.35924e-5
1.43400	10.7377	7.48792	10.0001	101.499	923.497	79.00	82.0337	2.33247e-5
1.61339	11.5394	7.15227	10.0001	110.969	930.289	78.75	81.6492	2.37126e-5
1.83519	12.5536	6.84048	10.0001	119.689	936.983	78.58	81.2514	2.34915e-5
2.09551	13.5960	6.48816	10.0001	129.985	943.639	78.32	80.7659	2.35335e-5
2.40111	14.7451	6.14097	10.0001	140.845	950.474	78.09	80.2344	2.34848e-5
2.74462	15.9799	5.82228	10.0001	152.785	957.281	77.89	79.6902	2.34784e-5
3.11590	17.2794	5.54557	10.0001	165.511	963.410	77.66	79.1644	2.34926e-5
3.48451	18.5293	5.31762	10.0001	178.612	969.635	77.45	78.6887	2.36176e-5
3.95206	19.9355	5.04432	10.0001	191.540	976.295	77.28	78.0729	2.35004e-5
4.49108	21.5592	4.80046	10.0001	206.378	982.896	77.06	77.4579	2.33770e-5
5.07945	23.2282	4.57298	10.0001	223.134	989.815	76.78	76.8277	2.34185e-5
5.68253	24.7891	4.36233	10.0001	240.222	995.954	76.62	76.1935	2.35807e-5
6.39940	26.6075	4.15781	10.0001	256.860	1002.30	76.38	75.5139	2.34444e-5
7.27911	28.7666	3.95194	10.0001	276.291	1009.20	76.14	74.7574	2.32700e-5
8.38767	31.2327	3.72365	10.0001	299.190	1015.98	75.86	73.8344	2.31380e-5
9.56910	33.8662	3.53912	10.0001	325.652	1022.81	75.67	72.9922	2.31613e-5
10.7597	36.2732	3.37122	10.0001	353.439	1028.97	75.50	72.1603	2.33985e-5
12.2531	39.1381	3.19415	10.0001	379.705	1035.66	75.29	71.1941	2.32150e-5
13.7283	41.8318	3.04712	10.0001	410.731	1042.35	75.07	70.3116	2.34150e-5
15.2471	44.4801	2.91728	10.0001	440.223	1048.51	74.84	69.4638	2.35233e-5
17.1571	47.5832	2.77338	10.0001	469.687	1055.39	74.61	68.4452	2.33597e-5
19.3395	50.9742	2.63576	10.0001	504.538	1062.24	74.39	67.3747	2.33132e-5
21.7485	54.5817	2.50967	10.0001	542.916	1069.11	74.19	66.2975	2.33154e-5
24.5310	58.5412	2.38642	10.0001	584.085	1075.83	73.94	65.1467	2.32631e-5
27.6178	62.5135	2.26352	10.0001	629.480	1082.64	73.69	63.9070	2.33334e-5
30.9549	66.7053	2.15492	10.0001	676.330	1089.56	73.47	62.7014	2.33483e-5
34.4549	70.8753	2.05705	10.0001	725.929	1096.37	73.27	61.5241	2.34391e-5
38.3303	75.1559	1.96074	10.0001	775.961	1103.18	73.02	60.2803	2.34649e-5
42.7828	79.7176	1.86331	10.0001	828.491	1110.06	72.82	58.9249	2.34308e-5
47.3583	84.2849	1.77973	10.0001	885.762	1116.25	72.57	57.6604	2.35131e-5
52.7504	89.3307	1.69346	10.0001	943.705	1123.22	72.34	56.2595	2.34268e-5
58.3699	94.3449	1.61633	10.0001	1008.95	1130.06	72.13	54.9104	2.35072e-5
63.8358	98.7701	1.54725	10.0001	1074.62	1136.86	71.90	53.6353	2.37044e-5
70.6455	104.092	1.47344	10.0001	1135.39	1143.74	71.66	52.1731	2.35138e-5
77.7168	109.185	1.40491	10.0001	1208.98	1150.48	71.44	50.7321	2.36102e-5
84.5806	113.930	1.34700	10.0001	1281.95	1157.29	71.30	49.4357	2.37484e-5
93.3410	119.457	1.27980	10.0001	1351.52	1164.17	71.01	47.8519	2.35634e-5
102.042	124.606	1.22113	10.0001	1435.77	1170.97	70.75	46.3848	2.36911e-5
111.092	129.697	1.16747	10.0001	1516.92	1177.85	70.53	44.9669	2.37418e-5
119.634	134.072	1.12068	10.0001	1599.03	1184.58	70.33	43.6795	2.39110e-5
129.026	138.701	1.07498	10.0001	1673.69	1191.29	70.14	42.3608	2.38777e-5
139.412	143.048	1.02608	10.0001	1754.19	1198.01	69.87	40.9112	2.38843e-5
150.266	147.304	0.980282	10.0001	1837.97	1204.87	69.67	39.4913	2.39092e-5
161.125	151.388	0.939570	10.0001	1923.48	1211.72	69.43	38.1732	2.39717e-5
172.082	155.016	0.900822	10.0001	2007.66	1218.55	69.20	36.8836	2.40418e-5
183.493	158.442	0.863477	10.0001	2089.53	1225.41	68.96	35.6013	2.40646e-5
196.285	161.893	0.824783	10.0001	2172.62	1232.24	68.72	34.2327	2.40204e-5
208.402	165.093	0.792186	10.0001	2263.11	1239.04	68.48	33.0362	2.41134e-5
220.726	167.481	0.758773	10.0001	2348.09	1245.86	68.27	31.8009	2.41754e-5
233.636	169.859	0.727025	10.0001	2429.89	1252.76	68.07	30.5919	2.41735e-5
246.205	172.029	0.698723	10.0001	2514.69	1259.53	67.84	29.4860	2.42303e-5
259.884	173.735	0.668508	10.0001	2596.35	1266.24	67.60	28.2934	2.42188e-5
272.430	174.858	0.641847	10.0001	2681.59	1272.96	67.40	27.2271	2.43225e-5
285.409	176.094	0.616987	10.0001	2757.90	1279.76	67.15	26.2070	2.43175e-5
299.303	176.879	0.590968	10.0001	2836.92	1286.62	66.94	25.1315	2.43117e-5
312.771	177.590	0.567795	10.0001	2918.94	1293.47	66.65	24.1549	2.43542e-5
324.767	177.828	0.547556	10.0001	2997.81	1299.65	66.45	23.2980	2.44532e-5
338.598	177.745	0.524945	10.0001	3066.74	1306.55	66.24	22.3332	2.43958e-5
351.909	177.229	0.503623	10.0001	3144.26	1313.43	66.01	21.4198	2.44450e-5
364.993	176.584	0.483801	10.0001	3217.25	1320.27	65.80	20.5614	2.44696e-5
378.751	175.775	0.464091	10.0001	3288.44	1327.10	65.64	19.7000	2.44578e-5
392.837	174.631	0.444538	10.0001	3362.62	1333.84	65.32	18.8424	2.44662e-5
405.967	173.124	0.426449	10.0001	3437.29	1340.78	65.09	18.0490	2.45227e-5
418.501	171.728	0.410342	10.0001	3505.46	1346.90	64.89	17.3359	2.45535e-5
431.258	169.904	0.393974	10.0001	3570.57	1353.66	64.60	16.6126	2.45619e-5
443.454	168.023	0.378895	10.0001	3635.48	1360.41	64.46	15.9442	2.45915e-5
455.519	165.860	0.364112	10.0001	3697.09	1367.36	64.22	15.2897	2.46074e-5
467.745	163.661	0.349894	10.0001	3757.16	1374.16	63.99	14.6579	2.46114e-5
480.089	161.098	0.335559	10.0001	3818.00	1381.02	63.75	14.0226	2.46206e-5
492.475	158.707	0.322264	10.0001	3878.46	1387.89	63.51	13.4286	2.46217e-5
503.910	156.003	0.309585	10.0001	3939.15	1394.68	63.33	12.8674	2.46620e-5
515.538	153.534	0.297814	10.0001	3994.17	1401.48	63.04	12.3424	2.46596e-5
526.366	150.591	0.286096	10.0001	4050.55	1408.11	62.87	11.8262	2.46950e-5
536.668	147.551	0.274939	10.0001	4101.56	1414.93	62.65	11.3367	2.47154e-5
547.498	144.576	0.264067	10.0001	4149.76	1421.79	62.42	10.8572	2.47015e-5
558.456	141.867	0.254034	10.0001	4200.63	1428.52	62.19	10.4122	2.47000e-5
567.969	139.147	0.244991	10.0001	4252.54	1435.28	62.01	10.0146	2.47466e-5
577.849	135.977	0.235315	10.0001	4296.86	1442.13	61.75	9.59278	2.47437e-5
587.421	132.888	0.226223	10.0001	4342.32	1448.96	61.49	9.19678	2.47552e-5
597.492	129.803	0.217246	10.0001	4386.29	1455.63	61.26	8.80497	2.47443e-5
606.036	127.175	0.209848	10.0001	4432.54	1461.87	61.06	8.48251	2.47851e-5
614.354	124.599	0.202812	10.0001	4471.67	1468.58	60.80	8.17677	2.47941e-5
622.942	121.564	0.195144	10.0001	4509.85	1475.43	60.59	7.84666	2.47924e-5
631.302	118.559	0.187801	10.0001	4548.54	1482.12	60.45	7.53137	2.47991e-5
639.540	116.162	0.181634	10.0001	4586.05	1488.82	60.18	7.26387	2.48010e-5
647.016	112.914	0.174515	10.0001	4623.64	1495.63	59.95	6.96293	2.48267e-5
654.890	110.114	0.168140	10.0001	4656.42	1502.45	59.74	6.69110	2.48157e-5
662.787	107.297	0.161888	10.0001	4691.70	1509.22	59.49	6.42512	2.48175e-5
669.857	104.559	0.156092	10.0001	4726.89	1516.11	59.27	6.18038	2.48393e-5
676.561	102.232	0.151106	10.0001	4758.14	1522.32	59.09	5.96897	2.48474e-5
683.086	99.9662	0.146345	10.0001	4787.96	1528.96	58.83	5.76762	2.48523e-5
689.177	97.5580	0.141557	10.0001	4816.86	1535.69	58.57	5.56749	2.48672e-5
695.742	94.4683	0.135781	10.0001	4843.87	1542.63	58.37	5.32835	2.48592e-5
702.619	91.9155	0.130819	10.0001	4872.10	1549.41	58.14	5.12101	2.48499e-5
708.458	89.9504	0.126967	10.0001	4902.26	1555.58	57.94	4.95961	2.48731e-5
713.129	88.3126	0.123838	10.0001	4927.96	1562.22	57.70	4.82910	2.48992e-5
718.703	86.1702	0.119897	10.0001	4948.47	1569.15	57.52	4.66596	2.48807e-5
723.925	83.7521	0.115692	10.0001	4972.72	1575.21	57.28	4.49412	2.48915e-5
730.117	81.5587	0.111706	10.0001	4995.35	1581.89	57.10	4.32930	2.48700e-5
734.726	80.1676	0.109112	10.0001	5022.20	1588.66	56.81	4.22135	2.49034e-5
739.127	78.4618	0.106155	10.0001	5042.41	1595.01	56.61	4.10022	2.49095e-5
744.305	76.2726	0.102475	10.0001	5061.46	1601.96	56.37	3.95053	2.48938e-5
749.240	74.7140	0.0997197	10.0001	5083.62	1608.77	56.20	3.83704	2.48973e-5
753.778	72.3953	0.0960433	10.0001	5104.99	1615.64	55.97	3.68954	2.49084e-5
757.609	70.9688	0.0936747	10.0001	5124.14	1621.74	55.76	3.59332	2.49216e-5
762.497	69.1264	0.0906579	10.0001	5140.66	1628.46	55.54	3.47107	2.48992e-5
766.527	67.7841	0.0884302	10.0001	5161.43	1635.19	55.28	3.38062	2.49175e-5
769.905	65.7345	0.0853801	10.0001	5178.87	1641.93	55.05	3.26013	2.49348e-5
774.464	64.3070	0.0830343	10.0001	5193.05	1648.68	54.90	3.16479	2.49068e-5
778.557	62.7535	0.0806023	10.0001	5212.38	1655.54	54.59	3.06739	2.49181e-5
782.186	61.4972	0.0786222	10.0001	5229.98	1662.37	54.39	2.98780	2.49280e-5
785.915	60.3030	0.0767297	10.0001	5245.40	1669.16	54.17	2.91172	2.49272e-5
788.790	59.7432	0.0757404	10.0001	5261.39	1676.03	53.94	2.87077	2.49430e-5
791.776	57.7439	0.0729295	10.0001	5273.67	1682.84	53.67	2.76127	2.49435e-5
795.698	55.9455	0.0703099	10.0001	5286.00	1689.69	53.50	2.65803	2.49228e-5
798.807	55.0389	0.0689014	10.0001	5302.20	1696.43	53.20	2.60174	2.49400e-5
802.336	54.2540	0.0676201	10.0001	5315.77	1703.08	53.03	2.54971	2.49325e-5
805.066	53.1329	0.0659982	10.0001	5330.72	1709.92	52.80	2.48589	2.49483e-5
808.037	51.9755	0.0643231	10.0001	5342.09	1716.63	52.60	2.42002	2.49438e-5
811.582	51.1122	0.0629785	10.0001	5354.61	1723.34	52.38	2.36608	2.49324e-5
812.784	48.8440	0.0600947	10.0001	5369.47	1729.44	52.21	2.25693	2.49802e-5
816.056	49.0921	0.0601578	10.0001	5373.89	1736.13	51.90	2.25623	2.49363e-5
818.816	47.7906	0.0583655	10.0001	5388.22	1742.95	51.67	2.18670	2.49501e-5
821.591	46.9160	0.0571039	10.0001	5399.67	1749.77	51.45	2.13698	2.49473e-5
824.519	45.8765	0.0556404	10.0001	5411.06	1756.64	51.30	2.07986	2.49446e-5
826.748	45.0190	0.0544531	10.0001	5423.33	1763.48	51.05	2.03372	2.49589e-5
829.405	44.9439	0.0541881	10.0001	5432.66	1770.39	50.83	2.02161	2.49502e-5
831.129	43.7074	0.0525880	10.0001	5443.93	1777.20	50.56	1.96066	2.49702e-5
833.370	43.3535	0.0520218	10.0001	5450.95	1783.97	50.32	1.93776	2.49588e-5
835.256	42.3087	0.0506535	10.0001	5460.29	1790.78	50.10	1.88542	2.49660e-5
837.799	41.2535	0.0492403	10.0001	5467.99	1797.74	49.90	1.83101	2.49537e-5
840.698	40.3411	0.0479852	10.0001	5478.53	1804.49	49.61	1.78233	2.49485e-5
842.946	39.7329	0.0471357	10.0001	5490.63	1811.35	49.40	1.74920	2.49610e-5
844.689	39.4888	0.0467495	10.0001	5499.92	1818.24	49.20	1.73357	2.49684e-5
846.861	38.9202	0.0459582	10.0001	5507.02	1825.04	49.01	1.70279	2.49612e-5
848.675	38.4061	0.0452542	10.0001	5516.14	1831.83	48.73	1.67546	2.49679e-5
850.301	37.9773	0.0446633	10.0001	5523.50	1838.57	48.52	1.65254	2.49715e-5
852.638	37.2682	0.0437093	10.0001	5530.34	1845.45	48.32	1.61569	2.49579e-5
854.320	36.1752	0.0423439	10.0001	5539.77	1852.33	48.08	1.56423	2.49703e-5
856.129	35.7045	0.0417046	10.0001	5546.58	1859.15	47.85	1.53951	2.49678e-5
858.289	35.2254	0.0410414	10.0001	5554.09	1866.03	47.59	1.51372	2.49618e-5
859.810	35.1140	0.0408392	10.0001	5562.97	1872.73	47.43	1.50527	2.49719e-5
861.531	34.6814	0.0402555	10.0001	5569.10	1879.69	47.12	1.48279	2.49695e-5
863.494	34.1047	0.0394961	10.0001	5576.38	1886.52	46.95	1.45365	2.49652e-5
864.853	33.7373	0.0390093	10.0001	5584.24	1893.28	46.73	1.43494	2.49754e-5
865.870	33.0538	0.0381741	10.0001	5589.74	1900.13	46.53	1.40369	2.49822e-5
867.969	32.3139	0.0372294	10.0001	5593.92	1906.95	46.27	1.36783	2.49633e-5
869.480	31.9981	0.0368014	10.0001	5602.46	1913.79	46.02	1.35128	2.49740e-5
871.154	31.8363	0.0365449	10.0001	5608.66	1920.58	45.78	1.34096	2.49712e-5
872.789	31.9715	0.0366314	10.0001	5615.56	1927.37	45.57	1.34321	2.49716e-5
874.249	31.3442	0.0358528	10.0001	5622.26	1934.23	45.32	1.31391	2.49756e-5
875.352	31.3576	0.0358228	10.0001	5628.17	1940.98	45.10	1.31224	2.49822e-5
877.920	29.9342	0.0340968	10.0001	5632.84	1947.72	44.88	1.24777	2.49574e-5
878.732	30.1540	0.0343153	10.0001	5642.99	1953.87	44.69	1.25533	2.49873e-5
879.346	30.2862	0.0344418	10.0001	5646.35	1960.54	44.47	1.25961	2.49901e-5
880.671	29.5244	0.0335249	10.0001	5648.84	1967.28	44.27	1.22540	2.49762e-5
882.575	29.3517	0.0332569	10.0001	5653.94	1973.83	44.00	1.21470	2.49658e-5
883.131	29.1574	0.0330159	10.0001	5661.77	1980.74	43.79	1.20564	2.49908e-5
884.588	28.8490	0.0326129	10.0001	5664.11	1987.59	43.53	1.19024	2.49757e-5
885.883	28.4977	0.0321687	10.0001	5670.05	1994.43	43.34	1.17339	2.49776e-5
886.787	27.8490	0.0314044	10.0001	5675.07	2001.16	43.12	1.14514	2.49850e-5
888.668	27.2485	0.0306622	10.0001	5678.83	2008.10	42.91	1.11724	2.49683e-5
889.732	27.4463	0.0308478	10.0001	5686.31	2014.19	42.70	1.12347	2.49806e-5
890.704	27.5291	0.0309071	10.0001	5690.48	2020.90	42.44	1.12522	2.49830e-5
891.169	26.9298	0.0302185	10.0001	5694.59	2027.73	42.24	1.09995	2.49929e-5
893.044	26.7315	0.0299330	10.0001	5696.44	2034.52	41.99	1.08873	2.49677e-5
894.233	25.9724	0.0290444	10.0001	5703.94	2041.43	41.71	1.05597	2.49819e-5
895.648	26.3901	0.0294648	10.0001	5708.89	2048.25	41.56	1.07057	2.49761e-5
896.866	25.8421	0.0288138	10.0001	5714.38	2055.14	41.34	1.04641	2.49786e-5
897.974	26.2393	0.0292206	10.0001	5719.16	2061.90	41.05	1.06075	2.49821e-5
898.801	25.6431	0.0285304	10.0001	5724.00	2068.81	40.82	1.03536	2.49891e-5
899.936	25.6816	0.0285371	10.0001	5727.25	2074.99	40.67	1.03507	2.49808e-5
900.984	25.0406	0.0277925	10.0001	5731.51	2081.85	40.42	1.00767	2.49822e-5
901.711	25.2070	0.0279546	10.0001	5735.70	2088.71	40.21	1.01324	2.49874e-5
902.836	25.1327	0.0278376	10.0001	5738.67	2095.47	39.98	1.00854	2.49809e-5
903.560	24.8413	0.0274927	10.0001	5743.17	2102.28	39.83	0.995754	2.49876e-5

[step]
Temperature ramp - 3
Storage modulus	Loss modulus	Tan(delta)	Angular frequency	Oscillation torque	Step time	Temperature	Raw phase	Oscillation displacement
MPa	MPa		rad/s	µN.m	s	°C	°	rad
45.4344	193.410	4.25691	10.0001	7561.55	6.16345	40.21	69.8886	9.81294e-5
-10.5415	-30.4329	2.88696	10.0001	1910.77	12.9981	40.54	252.013	1.46529e-4
3.36914	2.10661	0.625266	10.0001	298.596	19.8133	40.87	31.9913	1.87532e-4
832.107	141.745	0.170345	10.0001	71.3375	26.6353	41.14	6.26808	3.23262e-7
688.229	112.682	0.163728	10.0001	5506.60	33.5095	41.36	6.42197	2.83678e-5
658.887	146.181	0.221861	10.0001	4849.35	40.2627	41.52	8.73009	2.54979e-5
668.814	54.0680	0.0808416	10.0001	4753.19	47.0553	41.78	3.22858	2.52030e-5
72.9953	62.0729	0.850369	10.0001	4721.28	53.8807	42.02	38.1946	1.28368e-4
607.506	73.5616	0.121088	10.0001	977.557	60.7263	42.16	4.95531	5.52851e-6
-46.9562	45.1874	-0.962331	10.0001	4420.09	67.5819	42.47	134.387	1.63639e-4
7.00590	9.14787	1.30574	10.0001	597.994	74.4293	42.65	52.2446	1.29681e-4
455.962	93.1359	0.204262	10.0001	175.525	81.2347	42.87	8.89218	1.21449e-6
634.758	-20.8067	-0.0327790	10.0001	3631.25	88.0719	43.14	-1.33283	2.00256e-5
684.545	46.4799	0.0678990	10.0001	4533.47	94.8824	43.35	2.69509	2.36744e-5
-5.79042	-106.529	18.3975	10.0001	4775.34	101.731	43.61	-89.1793	1.11157e-4
678.031	14.5549	0.0214664	10.0001	1065.28	108.573	43.81	0.856208	5.61081e-6
693.173	68.9920	0.0995307	10.0001	4748.42	115.347	44.04	3.92567	2.45231e-5
25.0314	-60.5574	-2.41926	10.0001	4846.36	122.125	44.34	-65.3518	1.87028e-4
-8.23283	-1.23673	0.150219	10.0001	674.863	129.049	44.52	188.582	2.00362e-4
238.557	-371.860	-1.55879	10.0001	25.1728	135.943	44.70	-45.6012	1.66915e-7
28.2773	-64.3744	-2.27654	10.0001	3767.20	142.646	44.93	-63.9619	1.35799e-4
646.771	33.1043	0.0511840	10.0001	719.582	149.571	45.22	2.06840	3.91343e-6
697.418	87.1237	0.124923	10.0001	4607.93	156.413	45.42	4.90485	2.36371e-5
691.845	49.5002	0.0715481	10.0001	4869.89	163.099	45.63	2.82995	2.52379e-5
678.534	74.7024	0.110094	10.0001	4820.48	169.895	45.90	4.36634	2.52405e-5
-23.7339	56.8318	-2.39454	10.0001	4774.89	176.589	46.04	110.546	1.89997e-4
11.9334	-3.36806	-0.282238	10.0001	597.353	183.305	46.28	-15.6465	1.20788e-4
388.866	319.153	0.820729	10.0001	192.829	190.083	46.48	30.0503	1.20775e-6
-45.2134	-32.9180	0.728059	10.0001	3998.75	196.813	46.74	217.302	1.72680e-4
-9.54463	-2.01095	0.210689	10.0001	498.869	203.681	46.97	191.964	1.26318e-4
-61.3402	-678.586	11.0627	10.0001	37.4843	210.456	47.19	-70.7220	1.44349e-7
-128.375	89.4954	-0.697142	10.0001	6402.07	217.196	47.43	141.528	9.35093e-5
-26.6269	1.30706	-0.0490880	10.0001	1615.00	223.796	47.69	177.141	1.48036e-4
420.383	-561.489	-1.33566	10.0001	186.776	230.724	47.85	-37.3060	8.74693e-7
665.540	57.2459	0.0860141	10.0001	5293.61	237.458	48.13	3.43903	2.81572e-5
697.882	70.1286	0.100488	10.0001	4702.97	244.095	48.33	3.95490	2.41753e-5
37.0334	44.2367	1.19451	10.0001	4861.98	250.917	48.55	48.4781	2.14685e-4
681.688	48.5149	0.0711688	10.0001	618.596	257.708	48.81	2.82790	3.23914e-6
-46.5005	85.2870	-1.83411	10.0001	4782.80	264.540	48.97	115.366	1.18962e-4
18.1605	0.952537	0.0524511	10.0001	952.727	271.397	49.26	2.96891	1.31873e-4
3.42052	2.12091	0.620055	10.0001	267.731	278.173	49.48	31.7747	1.66031e-4
886.913	45.6056	0.0514206	10.0001	72.2043	284.895	49.68	1.87332	3.17611e-7
674.237	38.6090	0.0572632	10.0001	5667.05	291.636	49.93	2.28480	2.99240e-5
700.122	46.2510	0.0660614	10.0001	4745.41	298.523	50.14	2.60425	2.44003e-5
708.371	68.4822	0.0966756	10.0001	4875.35	305.296	50.44	3.78823	2.48100e-5
124.766	10.0772	0.0807689	10.0001	4909.71	312.125	50.60	4.27408	1.05384e-4
613.189	137.188	0.223728	10.0001	1221.83	318.915	50.79	8.98918	6.75650e-6
691.102	78.7231	0.113910	10.0001	4525.92	325.744	51.00	4.49068	2.33916e-5
-69.7400	-52.4194	0.751641	10.0001	4843.21	332.554	51.29	218.950	1.31928e-4
712.776	83.1588	0.116669	10.0001	834.205	339.338	51.48	4.55386	4.21950e-6
696.846	60.8116	0.0872670	10.0001	4951.43	346.231	51.72	3.44010	2.55064e-5
703.223	69.6007	0.0989740	10.0001	4866.91	353.049	52.00	3.88645	2.48878e-5
680.192	63.7773	0.0937637	10.0001	4887.22	359.893	52.19	3.72189	2.55888e-5
83.4655	-0.836458	-0.0100216	10.0001	4774.98	366.658	52.47	-0.544960	1.49917e-4
-10.6397	5.45947	-0.513123	10.0001	870.750	373.237	52.59	152.649	1.79754e-4
400.196	-178.281	-0.445484	10.0001	64.9009	380.132	52.87	-18.8004	4.65160e-7
44.1793	12.4943	0.282809	10.0001	3499.75	386.949	53.14	15.3459	1.94992e-4
1497.91	157.989	0.105473	10.0001	528.540	393.790	53.33	3.05770	1.71590e-6
627.473	150.131	0.239263	10.0001	7643.87	400.525	53.53	9.51960	4.14569e-5
631.432	151.761	0.240344	10.0001	4608.04	407.416	53.78	9.54288	2.48761e-5
660.729	90.3708	0.136775	10.0001	4639.37	414.255	54.02	5.45209	2.46766e-5
58.3694	2.91783	0.0499890	10.0001	4698.78	421.169	54.27	2.75845	2.07485e-4
7.91742	-3.48309	-0.439927	10.0001	646.590	427.299	54.40	-23.6365	1.86970e-4
1067.72	713.351	0.668105	10.0001	140.346	434.021	54.67	18.5274	4.75183e-7
646.750	69.7015	0.107772	10.0001	7328.82	440.814	54.89	4.33732	3.96960e-5
636.926	58.3038	0.0915394	10.0001	4608.21	447.553	55.16	3.70602	2.52675e-5
56.7185	-16.1682	-0.285061	10.0001	4560.22	454.334	55.32	-15.3376	1.99339e-4
598.201	39.8386	0.0665973	10.0001	634.958	461.257	55.53	2.74987	3.64829e-6
658.433	86.8307	0.131875	10.0001	4360.69	468.070	55.79	5.26533	2.32637e-5
650.035	61.0955	0.0939881	10.0001	4684.84	474.945	56.04	3.78168	2.53155e-5
642.102	74.8144	0.116515	10.0001	4624.95	481.741	56.24	4.69508	2.51578e-5
655.763	59.7396	0.0910994	10.0001	4601.22	488.541	56.49	3.65694	2.47187e-5
621.436	66.2474	0.106604	10.0001	4636.91	495.422	56.66	4.34093	2.58399e-5
-38.7343	-56.7943	1.46625	10.0001	4491.78	502.153	56.97	237.847	1.58554e-4
609.798	63.7853	0.104601	10.0001	650.087	508.771	57.15	4.28330	3.67302e-6
639.472	39.3521	0.0615384	10.0001	4427.55	515.677	57.35	2.49377	2.42598e-5
43.3437	-50.1625	-1.15732	10.0001	4559.65	522.521	57.60	-47.3769	1.75905e-4
-8.09786	-7.75242	0.957342	10.0001	698.613	529.349	57.90	224.015	1.54099e-4
287.759	67.7970	0.235603	10.0001	70.7851	536.152	58.06	11.1498	7.06170e-7
618.051	95.9828	0.155299	10.0001	2541.52	543.034	58.28	6.29767	1.41376e-5
615.298	117.562	0.191065	10.0001	4497.94	549.847	58.52	7.71528	2.49616e-5
622.302	66.6016	0.107025	10.0001	4504.16	556.693	58.77	4.35610	2.50736e-5
-85.3022	-5.35385	0.0627633	10.0001	4490.44	563.358	59.00	183.800	1.23472e-4
549.174	132.180	0.240690	10.0001	805.757	570.010	59.21	9.93744	4.81028e-6
605.442	106.594	0.176061	10.0001	4191.57	576.886	59.42	7.15958	2.35887e-5
591.972	81.6366	0.137906	10.0001	4431.82	583.676	59.66	5.67371	2.54866e-5
591.507	112.887	0.190847	10.0001	4349.80	590.459	59.91	7.79323	2.48329e-5
594.859	105.251	0.176935	10.0001	4380.12	597.371	60.11	7.23001	2.49614e-5
586.045	98.5669	0.168190	10.0001	4388.51	604.200	60.30	6.91057	2.53158e-5
27.0127	83.8920	3.10565	10.0001	4321.39	610.980	60.61	69.1191	1.24229e-4
627.609	72.6378	0.115737	10.0001	898.116	617.781	60.77	4.69515	4.96522e-6
568.348	84.4520	0.148592	10.0001	4517.58	624.680	61.04	6.17344	2.67221e-5
541.461	97.9342	0.180870	10.0001	4224.84	631.533	61.26	7.57681	2.57737e-5
526.577	87.4586	0.166089	10.0001	4094.12	638.398	61.53	7.02351	2.55591e-5
517.723	88.8796	0.171674	10.0001	4010.74	645.175	61.69	7.28513	2.53357e-5
478.526	54.4167	0.113717	10.0001	3948.64	652.021	61.88	4.95418	2.66738e-5
407.766	96.7256	0.237209	10.0001	3696.42	658.864	62.14	10.5223	2.77235e-5
305.106	168.843	0.553393	10.0001	3328.59	665.662	62.41	23.7717	2.85149e-5
247.433	199.712	0.807133	10.0001	2920.99	672.466	62.61	32.5836	2.66436e-5
201.192	241.598	1.20083	10.0001	2751.28	679.299	62.84	42.3783	2.48098e-5
189.026	267.059	1.41281	10.0001	2778.53	686.154	63.01	46.0007	2.39649e-5
181.300	295.699	1.63099	10.0001	2904.16	693.021	63.32	48.8179	2.35846e-5
194.390	318.725	1.63962	10.0001	3083.48	699.884	63.57	48.2919	2.34892e-5
227.255	319.009	1.40375	10.0001	3278.34	706.683	63.75	44.3841	2.42391e-5
257.228	316.332	1.22977	10.0001	3379.77	713.396	63.95	40.9800	2.43933e-5
280.521	320.863	1.14381	10.0001	3465.02	720.075	64.20	38.9192	2.42302e-5
319.277	301.813	0.945301	10.0001	3568.22	726.991	64.46	34.2386	2.46598e-5
434.454	170.259	0.391892	10.0001	3608.00	733.658	64.64	16.5069	2.46941e-5
429.112	166.039	0.386935	10.0001	3651.77	740.466	64.89	16.3681	2.52743e-5
420.076	178.484	0.424885	10.0001	3612.31	747.033	65.13	17.8546	2.51033e-5
403.408	179.420	0.444760	10.0001	3595.70	753.881	65.32	18.7416	2.56178e-5
389.673	177.155	0.454624	10.0001	3507.36	760.814	65.55	19.2414	2.55930e-5
376.531	175.001	0.464773	10.0001	3424.68	767.673	65.76	19.7495	2.55872e-5
365.972	174.491	0.476788	10.0001	3345.11	773.783	66.01	20.2992	2.54524e-5
356.103	182.700	0.513055	10.0001	3285.44	780.459	66.20	21.6977	2.52049e-5
341.148	183.249	0.537155	10.0001	3257.06	787.396	66.40	22.7212	2.56274e-5
323.459	182.410	0.563937	10.0001	3175.46	794.068	66.65	23.8726	2.58139e-5
313.604	178.169	0.568134	10.0001	3073.78	800.677	66.87	24.1541	2.55852e-5
299.185	179.797	0.600957	10.0001	3002.18	807.591	67.11	25.4640	2.56270e-5
283.765	180.028	0.634427	10.0001	2927.24	814.294	67.31	26.7989	2.57406e-5
268.958	178.203	0.662570	10.0001	2841.29	821.211	67.52	27.9454	2.58123e-5
254.433	175.626	0.690266	10.0001	2749.85	828.087	67.77	29.0704	2.58605e-5
241.752	173.023	0.715705	10.0001	2656.41	834.858	68.05	30.0893	2.57956e-5
228.765	170.502	0.745314	10.0001	2572.58	841.740	68.28	31.2360	2.58400e-5
214.443	167.199	0.779687	10.0001	2486.74	848.646	68.50	32.5438	2.59963e-5
201.329	164.504	0.817091	10.0001	2389.69	855.428	68.73	33.8998	2.59321e-5
188.554	161.392	0.855943	10.0001	2301.98	862.279	68.93	35.2718	2.59741e-5
176.278	157.751	0.894897	10.0001	2213.71	869.139	69.14	36.6180	2.60200e-5
163.551	153.485	0.938449	10.0001	2124.92	875.837	69.37	38.0769	2.61445e-5
152.399	148.826	0.976554	10.0001	2029.89	882.579	69.61	39.3378	2.61205e-5
141.076	144.424	1.02374	10.0001	1940.81	889.342	69.90	40.8037	2.61688e-5
129.268	139.290	1.07753	10.0001	1851.77	896.201	70.13	42.4088	2.63375e-5
118.578	134.165	1.13145	10.0001	1755.55	902.976	70.28	43.9454	2.63277e-5
109.365	129.371	1.18293	10.0001	1665.14	909.881	70.53	45.3455	2.62450e-5
100.737	124.501	1.23591	10.0001	1584.33	916.675	70.73	46.7225	2.62692e-5
92.0164	119.067	1.29398	10.0001	1505.58	923.568	70.96	48.1682	2.64244e-5
83.3956	113.347	1.35915	10.0001	1422.25	930.396	71.24	49.6989	2.65460e-5
76.1273	108.139	1.42050	10.0001	1337.36	937.117	71.52	51.0627	2.64366e-5
69.2980	103.176	1.48888	10.0001	1262.71	943.803	71.61	52.4793	2.64464e-5
63.0291	98.2669	1.55907	10.0001	1191.82	950.497	71.87	53.8493	2.64658e-5
56.9020	92.9299	1.63316	10.0001	1123.64	957.354	72.06	55.2225	2.66282e-5
51.3899	88.0230	1.71285	10.0001	1053.03	963.995	72.30	56.5882	2.65832e-5
46.3306	83.1562	1.79484	10.0001	988.361	970.203	72.55	57.9052	2.66274e-5
41.3322	78.0503	1.88837	10.0001	925.832	977.053	72.77	59.2996	2.67943e-5
37.4119	73.7311	1.97079	10.0001	861.900	983.843	72.99	60.4482	2.65759e-5
33.5428	69.4067	2.06920	10.0001	808.841	990.639	73.21	61.7082	2.66831e-5
29.9623	65.0154	2.16991	10.0001	755.734	997.297	73.46	62.9123	2.67813e-5
26.3521	60.3833	2.29140	10.0001	703.138	1004.20	73.71	64.2405	2.70107e-5
23.3772	56.3172	2.40907	10.0001	648.630	1010.99	73.86	65.4185	2.68724e-5
20.7968	52.6432	2.53131	10.0001	601.486	1017.72	74.13	66.5356	2.67959e-5
18.5654	49.1721	2.64859	10.0001	559.060	1024.46	74.34	67.5317	2.67809e-5
16.3803	45.8377	2.79835	10.0001	519.863	1031.17	74.51	68.6716	2.68553e-5
14.5146	42.6666	2.93956	10.0001	481.859	1038.04	74.80	69.6627	2.68477e-5
12.8844	39.7278	3.08340	10.0001	446.513	1044.91	75.00	70.5880	2.68171e-5
11.3866	36.9393	3.24410	10.0001	414.058	1051.68	75.25	71.5261	2.68415e-5
9.91194	34.0901	3.43929	10.0001	383.228	1058.62	75.54	72.5499	2.70231e-5
8.67587	31.5006	3.63082	10.0001	352.079	1065.32	75.67	73.4584	2.69547e-5
7.67409	29.2741	3.81467	10.0001	324.238	1072.04	75.97	74.2495	2.67809e-5
6.76208	27.0788	4.00451	10.0001	300.088	1078.83	76.14	74.9988	2.68596e-5
5.96422	25.1286	4.21323	10.0001	276.843	1085.63	76.40	75.7401	2.67631e-5
5.22519	23.2530	4.45018	10.0001	255.999	1092.43	76.58	76.4972	2.68061e-5
4.64380	21.6222	4.65614	10.0001	236.186	1099.27	76.81	77.1015	2.66438e-5
4.05834	19.8911	4.90128	10.0001	218.595	1106.18	77.08	77.7559	2.68503e-5
3.52217	18.2699	5.18710	10.0001	200.394	1113.04	77.30	78.4369	2.68487e-5
3.07261	16.8758	5.49234	10.0001	183.655	1119.85	77.52	79.0827	2.66813e-5
2.69783	15.5737	5.77268	10.0001	168.952	1126.69	77.71	79.6236	2.66323e-5
2.37218	14.3455	6.04738	10.0001	155.287	1133.37	77.94	80.1092	2.66038e-5
2.06166	13.1642	6.38528	10.0001	142.617	1140.30	78.24	80.6437	2.66545e-5
1.77699	12.0624	6.78811	10.0001	130.577	1147.03	78.45	81.2074	2.66660e-5
1.56776	11.1106	7.08695	10.0001	119.489	1153.81	78.71	81.5938	2.65103e-5
1.38629	10.2812	7.41634	10.0001	110.064	1160.76	78.85	81.9796	2.64108e-5
1.21830	9.51690	7.81165	10.0001	101.734	1167.65	79.08	82.3951	2.63929e-5
1.08108	8.84723	8.18370	10.0001	94.1535	1173.70	79.37	82.7511	2.62890e-5
0.943631	8.11871	8.60370	10.0001	87.0012	1180.35	79.54	83.1189	2.64900e-5
0.826278	7.44464	9.00985	10.0001	79.6742	1187.27	79.77	83.4445	2.64690e-5
0.730890	6.85044	9.37274	10.0001	73.0277	1194.08	79.97	83.7143	2.63762e-5
0.643924	6.34950	9.86064	10.0001	67.3399	1200.95	80.20	84.0365	2.62538e-5
0.563910	5.85471	10.3824	10.0001	62.2094	1207.64	80.42	84.3491	2.63159e-5
0.497469	5.37121	10.7971	10.0001	57.1346	1214.43	80.67	84.5831	2.63534e-5
0.444020	4.95295	11.1548	10.0001	52.4609	1221.40	80.95	84.7734	2.62440e-5
0.387921	4.58426	11.8175	10.0001	48.4496	1228.08	81.13	85.0793	2.61984e-5
0.346258	4.24545	12.2609	10.0001	44.7722	1235.01	81.36	85.2727	2.61470e-5
0.306142	3.90455	12.7541	10.0001	41.2953	1241.84	81.67	85.4729	2.62285e-5
0.269140	3.59414	13.3542	10.0001	37.9613	1248.66	81.81	85.6937	2.62027e-5
0.240533	3.32648	13.8296	10.0001	34.9921	1255.40	82.04	85.8591	2.60994e-5
0.218286	3.08200	14.1191	10.0001	32.3609	1262.31	82.26	85.9619	2.60539e-5
0.196244	2.85438	14.5450	10.0001	29.9613	1269.14	82.46	86.0988	2.60517e-5
0.170638	2.63745	15.4564	10.0001	27.7227	1275.88	82.77	86.3493	2.60907e-5
0.153324	2.44909	15.9732	10.0001	25.6390	1282.79	82.96	86.4872	2.59900e-5
0.137567	2.26327	16.4521	10.0001	23.7302	1289.63	83.23	86.6112	2.60332e-5
0.124956	2.09214	16.7430	10.0001	21.9127	1296.44	83.47	86.6919	2.60051e-5
0.110645	1.93443	17.4833	10.0001	20.2579	1303.27	83.65	86.8575	2.60066e-5
0.0999280	1.79980	18.0110	10.0001	18.7752	1310.13	83.84	86.9733	2.59095e-5
0.0901067	1.66018	18.4246	10.0001	17.3754	1316.83	84.14	87.0680	2.59945e-5
0.0818213	1.52945	18.6926	10.0001	16.0030	1323.53	84.32	87.1375	2.59909e-5
0.0729499	1.41322	19.3724	10.0001	14.7645	1330.44	84.59	87.2701	2.59523e-5
0.0651090	1.32024	20.2774	10.0001	13.7229	1337.13	84.71	87.4249	2.58255e-5
0.0600125	1.22598	20.4287	10.0001	12.7603	1343.99	85.00	87.4720	2.58611e-5
0.0563024	1.13723	20.1985	10.0001	11.8316	1350.25	85.25	87.4684	2.58516e-5
0.0487105	1.04918	21.5391	10.0001	10.9557	1356.98	85.49	87.6768	2.59471e-5
0.0449602	0.974415	21.6728	10.0001	10.1285	1363.84	85.67	87.7246	2.58286e-5
0.0426860	0.910360	21.3269	10.0001	9.43132	1370.60	85.85	87.7124	2.57436e-5
0.0381655	0.847795	22.2136	10.0001	8.80283	1377.39	86.10	87.8536	2.58046e-5
0.0352145	0.783653	22.2537	10.0001	8.15277	1384.18	86.32	87.8985	2.58558e-5
0.0327868	0.738649	22.5289	10.0001	7.62130	1390.39	86.56	87.9621	2.56432e-5
0.0302572	0.685697	22.6623	10.0001	7.11781	1397.13	86.81	88.0199	2.57973e-5
0.0278196	0.632547	22.7375	10.0001	6.58004	1403.94	87.02	88.0783	2.58544e-5
0.0257202	0.584512	22.7258	10.0001	6.07417	1410.82	87.25	88.1298	2.58289e-5
0.0235715	0.543063	23.0389	10.0001	5.63126	1417.51	87.44	88.2168	2.57744e-5
0.0216870	0.507913	23.4202	10.0001	5.25170	1424.18	87.68	88.3085	2.57024e-5
0.0203720	0.470970	23.1185	10.0001	4.88222	1431.05	87.89	88.3386	2.57692e-5
0.0188715	0.439501	23.2892	10.0001	4.54539	1437.83	88.11	88.4176	2.57092e-5
0.0172578	0.409848	23.7485	10.0001	4.23981	1444.66	88.33	88.5308	2.57182e-5
0.0162088	0.379060	23.3861	10.0001	3.93059	1451.46	88.58	88.5723	2.57782e-5
0.0154239	0.353240	22.9021	10.0001	3.65080	1458.33	88.80	88.5973	2.56951e-5
0.0142871	0.329688	23.0759	10.0001	3.40652	1465.00	89.06	88.6963	2.56883e-5
0.0134624	0.309776	23.0105	10.0001	3.19158	1471.61	89.25	88.7666	2.56166e-5
0.0127112	0.289165	22.7488	10.0001	2.98598	1478.49	89.49	88.8290	2.56739e-5
0.0118098	0.269685	22.8356	10.0001	2.78533	1485.27	89.71	88.9374	2.56803e-5
0.0113939	0.251552	22.0777	10.0001	2.59607	1492.12	89.92	88.9568	2.56595e-5
0.0105306	0.235207	22.3356	10.0001	2.42683	1499.01	90.18	89.0960	2.56571e-5
9.91552e-3	0.219409	22.1279	10.0001	2.26486	1505.79	90.40	89.1927	2.56693e-5
9.50378e-3	0.206302	21.7073	10.0001	2.12245	1512.04	90.60	89.2565	2.55809e-5
8.92676e-3	0.191908	21.4981	10.0001	1.98196	1518.77	90.85	89.3742	2.56817e-5
8.41310e-3	0.179134	21.2923	10.0001	1.84801	1525.45	91.08	89.4948	2.56532e-5
7.85263e-3	0.167110	21.2808	10.0001	1.72468	1532.28	91.29	89.6515	2.56638e-5
7.51449e-3	0.155723	20.7231	10.0001	1.60663	1539.02	91.50	89.7514	2.56570e-5
7.10207e-3	0.145759	20.5235	10.0001	1.50181	1545.69	91.78	89.8972	2.56219e-5
6.74371e-3	0.136803	20.2860	10.0001	1.40771	1552.55	91.98	90.0412	2.55889e-5
6.41259e-3	0.128205	19.9928	10.0001	1.32000	1559.30	92.15	90.1926	2.56036e-5
6.19421e-3	0.120657	19.4790	10.0001	1.24013	1566.03	92.42	90.3089	2.55588e-5
5.93422e-3	0.113282	19.0896	10.0001	1.16554	1572.63	92.60	90.4612	2.55854e-5
5.71343e-3	0.106397	18.6223	10.0001	1.09410	1579.53	92.82	90.6106	2.55717e-5
5.30905e-3	0.0995999	18.7604	10.0001	1.02622	1586.36	93.06	90.8854	2.56212e-5
5.05963e-3	0.0931534	18.4111	10.0001	0.959566	1593.11	93.30	91.1006	2.56135e-5
4.95129e-3	0.0874658	17.6653	10.0001	0.899622	1600.02	93.57	91.2427	2.55691e-5
4.77748e-3	0.0823312	17.2332	10.0001	0.846021	1606.78	93.82	91.4418	2.55449e-5
4.44890e-3	0.0773780	17.3926	10.0001	0.796312	1613.61	94.00	91.7776	2.55795e-5
4.37135e-3	0.0729582	16.6901	10.0001	0.749182	1620.45	94.19	91.9464	2.55211e-5
4.14739e-3	0.0684063	16.4938	10.0001	0.704413	1627.28	94.45	92.2638	2.55887e-5
3.95843e-3	0.0642780	16.2382	10.0001	0.661345	1634.16	94.68	92.5774	2.55610e-5
3.70721e-3	0.0601871	16.2351	10.0001	0.620570	1640.87	94.90	92.9907	2.56046e-5
3.61347e-3	0.0566440	15.6758	10.0001	0.582512	1647.66	95.10	93.2726	2.55322e-5
3.49096e-3	0.0537118	15.3860	10.0001	0.551320	1654.36	95.32	93.5813	2.54763e-5
3.36529e-3	0.0506144	15.0401	10.0001	0.520875	1661.16	95.63	93.9412	2.55301e-5
3.22846e-3	0.0475399	14.7253	10.0001	0.490228	1668.00	95.79	94.3600	2.55703e-5
2.96670e-3	0.0447716	15.0914	10.0001	0.461920	1674.85	96.02	94.9606	2.55596e-5
2.92004e-3	0.0420337	14.3949	10.0001	0.433591	1681.53	96.25	95.3460	2.55414e-5
2.88751e-3	0.0395822	13.7081	10.0001	0.408298	1688.44	96.51	95.7217	2.55246e-5
2.72688e-3	0.0373272	13.6886	10.0001	0.385581	1695.20	96.71	96.3087	2.55330e-5
2.61949e-3	0.0352964	13.4745	10.0001	0.364386	1701.50	96.86	96.8411	2.54918e-5
2.40545e-3	0.0332433	13.8200	10.0001	0.344676	1708.26	97.19	97.6207	2.55549e-5
2.47030e-3	0.0317377	12.8477	10.0001	0.326918	1714.91	97.36	97.8629	2.53735e-5
2.31540e-3	0.0300007	12.9570	10.0001	0.311333	1721.81	97.58	98.6019	2.55160e-5
2.18201e-3	0.0282493	12.9465	10.0001	0.294118	1728.58	97.83	99.3913	2.55459e-5
2.16533e-3	0.0266510	12.3081	10.0001	0.277308	1735.30	97.99	99.9780	2.54850e-5
2.07171e-3	0.0252881	12.2064	10.0001	0.263466	1741.94	98.23	100.709	2.54589e-5
1.92849e-3	0.0238203	12.3518	10.0001	0.249855	1748.66	98.53	101.683	2.55446e-5
1.80103e-3	0.0225648	12.5288	10.0001	0.237069	1755.61	98.70	102.624	2.54975e-5
1.82092e-3	0.0213773	11.7398	10.0001	0.224695	1762.42	98.98	103.249	2.54434e-5
1.67117e-3	0.0201086	12.0327	10.0001	0.213495	1769.13	99.17	104.455	2.55689e-5
1.69200e-3	0.0190660	11.2683	10.0001	0.202138	1775.97	99.44	105.150	2.54497e-5
1.58334e-3	0.0181316	11.4515	10.0001	0.193323	1782.62	99.62	106.210	2.54616e-5
1.49749e-3	0.0171718	11.4670	10.0001	0.184263	1789.43	99.88	107.325	2.54735e-5
1.47615e-3	0.0161997	10.9743	10.0001	0.174998	1796.26	100.08	108.364	2.54947e-5
1.39862e-3	0.0153824	10.9983	10.0001	0.167108	1802.94	100.29	109.527	2.54614e-5
1.38223e-3	0.0146578	10.6045	10.0001	0.159898	1809.63	100.50	110.472	2.54148e-5
1.36941e-3	0.0138840	10.1387	10.0001	0.152847	1816.41	100.75	111.557	2.54626e-5
1.16432e-3	0.0131803	11.3202	10.0001	0.147201	1823.19	100.92	113.350	2.54992e-5
1.14744e-3	0.0126221	11.0002	10.0001	0.141157	1829.42	101.17	114.330	2.53418e-5
1.11921e-3	0.0119719	10.6967	10.0001	0.135779	1836.18	101.41	115.595	2.54352e-5
1.09594e-3	0.0113497	10.3562	10.0001	0.129991	1842.98	101.68	116.899	2.53987e-5
1.05931e-3	0.0107569	10.1547	10.0001	0.124794	1849.86	101.89	118.310	2.53976e-5
1.02090e-3	0.0102163	10.0072	10.0001	0.119886	1856.65	102.06	119.727	2.53424e-5
1.01391e-3	9.86732e-3	9.73194	10.0001	0.116360	1863.49	102.31	120.622	2.52368e-5
9.62081e-4	9.41687e-3	9.78801	10.0001	0.113000	1869.68	102.50	122.035	2.52974e-5
8.94578e-4	8.82497e-3	9.86495	10.0001	0.108909	1876.32	102.81	124.030	2.54320e-5
8.92337e-4	8.42427e-3	9.44068	10.0001	0.104841	1883.12	102.97	125.286	2.52615e-5
9.20694e-4	8.02907e-3	8.72067	10.0001	0.101333	1889.82	103.18	126.465	2.52406e-5
8.41383e-4	7.66474e-3	9.10970	10.0001	0.0989647	1896.59	103.37	128.114	2.52629e-5
7.66509e-4	7.30389e-3	9.52877	10.0001	0.0965780	1903.32	103.69	129.811	2.52590e-5
7.14810e-4	6.83824e-3	9.56652	10.0001	0.0937011	1910.10	103.81	131.918	2.53554e-5
6.50058e-4	6.66983e-3	10.2604	10.0001	0.0921451	1917.05	104.18	132.927	2.51545e-5
6.37276e-4	6.24811e-3	9.80439	10.0001	0.0896461	1923.76	104.31	134.857	2.52924e-5
6.21224e-4	6.02095e-3	9.69209	10.0001	0.0876322	1930.52	104.51	135.992	2.51466e-5
6.10590e-4	5.75829e-3	9.43070	10.0001	0.0859684	1937.19	104.77	137.315	2.51698e-5
5.94258e-4	5.43743e-3	9.14994	10.0001	0.0840709	1943.96	104.99	139.021	2.52133e-5
5.41888e-4	5.19318e-3	9.58350	10.0001	0.0827636	1950.71	105.25	140.555	2.51788e-5
5.00248e-4	4.93017e-3	9.85545	10.0001	0.0814652	1957.40	105.42	142.194	2.51904e-5
4.81184e-4	4.69781e-3	9.76303	10.0001	0.0801543	1964.18	105.65	143.607	2.51762e-5
4.66818e-4	4.50602e-3	9.65262	10.0001	0.0790153	1971.05	105.89	144.799	2.51372e-5
4.71332e-4	4.26443e-3	9.04760	10.0001	0.0776710	1977.86	106.10	146.255	2.51620e-5
4.02634e-4	4.17140e-3	10.3603	10.0001	0.0775173	1984.68	106.30	147.117	2.50917e-5
3.95321e-4	3.93642e-3	9.95752	10.0001	0.0765799	1991.41	106.55	148.641	2.51772e-5
4.37366e-4	3.76529e-3	8.60902	10.0001	0.0750686	1998.24	106.78	149.596	2.50912e-5
3.63934e-4	3.57264e-3	9.81671	10.0001	0.0750450	2004.83	107.05	151.169	2.51895e-5
4.44508e-4	3.45152e-3	7.76480	10.0001	0.0731663	2011.79	107.26	151.697	2.49928e-5
4.11126e-4	3.28408e-3	7.98800	10.0001	0.0730775	2018.47	107.47	152.991	2.51287e-5
3.34833e-4	3.13269e-3	9.35599	10.0001	0.0731025	2025.33	107.71	154.334	2.51332e-5
3.74175e-4	3.00523e-3	8.03162	10.0001	0.0719309	2032.22	107.90	155.120	2.50421e-5
2.53527e-4	2.85608e-3	11.2654	10.0001	0.0728241	2039.02	108.14	156.603	2.51800e-5
2.89671e-4	2.74804e-3	9.48679	10.0001	0.0716397	2045.87	108.37	157.287	2.50337e-5
2.70570e-4	2.62742e-3	9.71068	10.0001	0.0715293	2052.60	108.61	158.246	2.50937e-5
2.18611e-4	2.53803e-3	11.6098	10.0001	0.0716201	2059.26	108.83	159.070	2.50693e-5
2.32000e-4	2.39979e-3	10.3439	10.0001	0.0710153	2066.02	109.03	160.081	2.50721e-5
2.54215e-4	2.26481e-3	8.90906	10.0001	0.0702749	2072.76	109.25	161.062	2.50449e-5
1.84679e-4	2.18592e-3	11.8363	10.0001	0.0708243	2079.49	109.52	161.854	2.50937e-5
2.41879e-4	2.12588e-3	8.78903	10.0001	0.0697933	2086.31	109.70	162.178	2.49882e-5
1.51097e-4	2.05433e-3	13.5962	10.0001	0.0707818	2093.02	109.96	162.961	2.51064e-5
2.01960e-4	1.91776e-3	9.49572	10.0001	0.0697193	2099.91	110.13	163.919	2.50427e-5

[step]
Temperature ramp - 4
Storage modulus	Loss modulus	Tan(delta)	Angular frequency	Oscillation torque	Step time	Temperature	Raw phase	Oscillation displacement
MPa	MPa		rad/s	µN.m	s	°C	°	rad
2.94104e-5	2.19769e-3	74.7247	10.0001	0.252254	6.28156	109.74	162.152	8.74902e-5
4.48063e-5	2.30585e-3	51.4627	10.0001	0.252079	12.9958	109.43	161.293	8.71944e-5
5.68689e-5	2.44223e-3	42.9449	10.0001	0.253244	19.8536	109.17	160.237	8.71904e-5
7.07649e-5	2.56564e-3	36.2558	10.0001	0.254247	26.5879	108.90	159.283	8.71782e-5
8.78346e-5	2.70595e-3	30.8073	10.0001	0.255399	33.2784	108.64	158.205	8.71538e-5
1.02644e-4	2.86971e-3	27.9578	10.0001	0.256865	40.1560	108.50	156.973	8.70711e-5
1.42693e-4	2.99548e-3	20.9925	10.0001	0.257543	46.8891	108.25	155.948	8.71400e-5
1.40147e-4	3.17707e-3	22.6696	10.0001	0.260205	53.8501	108.02	154.677	8.71140e-5
1.65826e-4	3.37347e-3	20.3434	10.0001	0.261998	60.6328	107.76	153.235	8.69753e-5
1.90329e-4	3.59083e-3	18.8664	10.0001	0.264525	67.4382	107.55	151.682	8.68997e-5
1.88042e-4	3.78588e-3	20.1332	10.0001	0.268331	74.2094	107.33	150.406	8.70409e-5
2.41107e-4	3.99263e-3	16.5596	10.0001	0.269919	81.0294	107.14	148.879	8.68908e-5
2.57889e-4	4.24955e-3	16.4782	10.0001	0.274033	87.8971	106.85	147.211	8.68483e-5
2.93219e-4	4.50164e-3	15.3525	10.0001	0.277775	94.7458	106.63	145.548	8.68160e-5
3.20276e-4	4.76427e-3	14.8755	10.0001	0.282311	101.602	106.40	143.904	8.68187e-5
3.35598e-4	5.01842e-3	14.9537	10.0001	0.287293	108.484	106.20	142.410	8.68449e-5
3.42467e-4	5.26224e-3	15.3657	10.0001	0.292567	115.186	105.94	141.060	8.69019e-5
3.85404e-4	5.55739e-3	14.4197	10.0001	0.297355	122.075	105.72	139.335	8.67075e-5
3.81515e-4	5.84534e-3	15.3214	10.0001	0.304200	128.948	105.56	137.915	8.67367e-5
4.57163e-4	6.20609e-3	13.5752	10.0001	0.309848	135.803	105.24	135.869	8.64526e-5
4.75884e-4	6.50604e-3	13.6715	10.0001	0.317803	142.610	105.04	134.432	8.67402e-5
5.23455e-4	6.83958e-3	13.0662	10.0001	0.324460	149.451	104.80	132.789	8.65769e-5
5.47352e-4	7.11078e-3	12.9912	10.0001	0.331628	156.251	104.62	131.573	8.67679e-5
6.05714e-4	7.44259e-3	12.2873	10.0001	0.338516	162.421	104.36	130.017	8.66276e-5
5.72641e-4	7.86299e-3	13.7311	10.0001	0.350149	169.107	104.11	128.623	8.65235e-5
6.52879e-4	8.28804e-3	12.6946	10.0001	0.359506	175.843	103.91	126.805	8.63679e-5
6.70774e-4	8.71862e-3	12.9978	10.0001	0.371625	182.711	103.70	125.347	8.64631e-5
6.94449e-4	9.17558e-3	13.2127	10.0001	0.383960	189.584	103.49	123.874	8.63973e-5
7.58569e-4	9.60759e-3	12.6654	10.0001	0.395269	196.373	103.26	122.396	8.63928e-5
8.04948e-4	0.0100815	12.5244	10.0001	0.408316	203.234	103.04	120.967	8.63670e-5
8.68047e-4	0.0106874	12.3120	10.0001	0.423711	209.975	102.78	119.256	8.60214e-5
8.74601e-4	0.0112428	12.8547	10.0001	0.441481	216.647	102.61	118.009	8.62208e-5
9.51560e-4	0.0117215	12.3182	10.0001	0.455575	223.432	102.34	116.729	8.63249e-5
9.95509e-4	0.0123420	12.3977	10.0001	0.472894	230.196	102.11	115.393	8.60771e-5
1.01916e-3	0.0129768	12.7328	10.0001	0.492440	236.507	101.90	114.213	8.60730e-5
1.10197e-3	0.0136232	12.3626	10.0001	0.511296	243.319	101.70	112.891	8.59820e-5
1.13704e-3	0.0143157	12.5903	10.0001	0.532874	250.112	101.44	111.771	8.59682e-5
1.21377e-3	0.0151131	12.4514	10.0001	0.556155	256.966	101.21	110.468	8.57416e-5
1.26353e-3	0.0159748	12.6429	10.0001	0.583533	263.913	101.00	109.290	8.57458e-5
1.32687e-3	0.0168373	12.6895	10.0001	0.611177	270.577	100.81	108.173	8.57631e-5
1.34327e-3	0.0177057	13.1811	10.0001	0.640633	277.466	100.54	107.290	8.59175e-5
1.40954e-3	0.0185805	13.1819	10.0001	0.668914	284.343	100.39	106.332	8.59146e-5
1.52253e-3	0.0195419	12.8351	10.0001	0.699057	291.092	100.09	105.261	8.58232e-5
1.58525e-3	0.0207170	13.0686	10.0001	0.735945	298.000	99.86	104.270	8.56198e-5
1.65803e-3	0.0219745	13.2533	10.0001	0.777186	304.857	99.63	103.305	8.55993e-5
1.73960e-3	0.0233774	13.4384	10.0001	0.822551	311.555	99.41	102.342	8.54856e-5
1.77541e-3	0.0247010	13.9129	10.0001	0.869945	317.867	99.17	101.619	8.57930e-5
2.02125e-3	0.0267437	13.2313	10.0001	0.926822	324.586	98.99	100.243	8.48117e-5
2.00134e-3	0.0280647	14.0230	10.0001	0.985230	331.392	98.79	99.8090	8.60206e-5
2.10331e-3	0.0294633	14.0080	10.0001	1.03046	338.149	98.55	99.1593	8.58663e-5
2.16200e-3	0.0309560	14.3182	10.0001	1.08155	344.819	98.32	98.6190	8.59087e-5
2.29177e-3	0.0329402	14.3732	10.0001	1.14296	351.644	98.13	97.8845	8.54701e-5
2.42498e-3	0.0348645	14.3772	10.0001	1.21038	358.280	97.87	97.2394	8.56480e-5
2.50913e-3	0.0366613	14.6112	10.0001	1.27501	364.900	97.61	96.7584	8.58888e-5
2.56617e-3	0.0386594	15.0650	10.0001	1.34194	371.805	97.43	96.3289	8.58023e-5
2.72692e-3	0.0408753	14.9895	10.0001	1.41565	378.658	97.19	95.7649	8.56952e-5
2.93171e-3	0.0434442	14.8187	10.0001	1.49986	385.444	96.94	95.1585	8.55140e-5
2.95561e-3	0.0462410	15.6451	10.0001	1.59608	392.269	96.74	94.8177	8.55327e-5
3.11781e-3	0.0489714	15.7070	10.0001	1.69074	399.103	96.48	94.3617	8.56109e-5
3.27562e-3	0.0517931	15.8117	10.0001	1.78877	405.865	96.30	93.9508	8.56824e-5
3.39077e-3	0.0546784	16.1257	10.0001	1.88856	412.503	96.08	93.6227	8.57238e-5
3.53543e-3	0.0577988	16.3484	10.0001	1.99486	419.372	95.86	93.2845	8.56910e-5
3.69559e-3	0.0610188	16.5113	10.0001	2.10508	425.495	95.59	92.9612	8.56784e-5
3.85766e-3	0.0648481	16.8102	10.0001	2.23262	432.241	95.38	92.6438	8.55310e-5
4.00268e-3	0.0690487	17.2506	10.0001	2.37456	439.059	95.15	92.3624	8.54486e-5
4.20431e-3	0.0734865	17.4789	10.0001	2.52670	445.819	94.93	92.0628	8.54533e-5
4.37637e-3	0.0777508	17.7661	10.0001	2.67915	452.741	94.72	91.8226	8.56475e-5
4.54581e-3	0.0826199	18.1749	10.0001	2.84176	459.569	94.46	91.5979	8.55098e-5
4.75516e-3	0.0875062	18.4024	10.0001	3.01259	466.287	94.28	91.3710	8.55893e-5
4.90903e-3	0.0924112	18.8248	10.0001	3.18510	472.895	94.10	91.2021	8.56854e-5
5.20276e-3	0.0978148	18.8006	10.0001	3.36482	479.826	93.85	90.9637	8.55335e-5
5.44407e-3	0.104479	19.1914	10.0001	3.58435	486.564	93.56	90.7697	8.53122e-5
5.69381e-3	0.111975	19.6661	10.0001	3.83607	493.205	93.37	90.5897	8.51889e-5
6.08292e-3	0.119619	19.6648	10.0001	4.10057	499.953	93.14	90.3653	8.52509e-5
6.30650e-3	0.126685	20.0881	10.0001	4.35999	506.784	92.92	90.2433	8.55896e-5
6.57979e-3	0.133628	20.3089	10.0001	4.60618	512.993	92.69	90.1131	8.57286e-5
6.81179e-3	0.141835	20.8219	10.0001	4.87519	519.790	92.48	90.0119	8.54764e-5
7.28270e-3	0.151969	20.8671	10.0001	5.20194	526.612	92.28	89.8329	8.51237e-5
7.73756e-3	0.162395	20.9879	10.0001	5.56684	533.393	92.01	89.6824	8.52444e-5
7.97806e-3	0.172664	21.6424	10.0001	5.93009	540.121	91.79	89.6210	8.54174e-5
8.44861e-3	0.183497	21.7192	10.0001	6.30001	546.850	91.59	89.4956	8.53822e-5
8.89000e-3	0.196680	22.1237	10.0001	6.73018	553.678	91.37	89.3998	8.50954e-5
9.49135e-3	0.210785	22.2081	10.0001	7.21230	560.464	91.10	89.2755	8.50858e-5
0.0100203	0.224812	22.4356	10.0001	7.70978	567.328	90.87	89.1850	8.52815e-5
0.0105070	0.240576	22.8966	10.0001	8.23726	574.167	90.65	89.1213	8.51402e-5
0.0111852	0.257868	23.0543	10.0001	8.82185	580.994	90.43	89.0284	8.50693e-5
0.0120363	0.276276	22.9536	10.0001	9.45049	587.785	90.22	88.9153	8.50520e-5
0.0127554	0.296095	23.2133	10.0001	10.1299	594.565	90.00	88.8475	8.50692e-5
0.0137377	0.315694	22.9802	10.0001	10.8218	601.288	89.76	88.7393	8.52276e-5
0.0146610	0.339616	23.1645	10.0001	11.5925	608.011	89.51	88.6707	8.48676e-5
0.0156188	0.366323	23.4540	10.0001	12.4873	614.850	89.26	88.6160	8.47541e-5
0.0164294	0.391608	23.8359	10.0001	13.4046	621.629	89.10	88.5850	8.51014e-5
0.0177467	0.419377	23.6313	10.0001	14.3383	628.602	88.85	88.4968	8.50026e-5
0.0187567	0.448554	23.9144	10.0001	15.3436	635.334	88.66	88.4635	8.50419e-5
0.0202055	0.481221	23.8163	10.0001	16.4291	641.972	88.39	88.3931	8.48717e-5
0.0217838	0.516885	23.7279	10.0001	17.6375	648.893	88.16	88.3265	8.48257e-5
0.0235716	0.557725	23.6609	10.0001	18.9911	655.564	87.92	88.2626	8.46483e-5
0.0253761	0.597651	23.5518	10.0001	20.4059	662.375	87.74	88.2029	8.48740e-5
0.0272679	0.639603	23.4562	10.0001	21.8446	669.326	87.47	88.1484	8.48970e-5
0.0299519	0.688255	22.9787	10.0001	23.4480	676.122	87.34	88.0525	8.46718e-5
0.0325844	0.739423	22.6925	10.0001	25.2129	682.961	87.03	87.9798	8.47518e-5
0.0347055	0.796036	22.9368	10.0001	27.1049	689.808	86.78	87.9669	8.46281e-5
0.0376926	0.860508	22.8296	10.0001	29.2361	696.621	86.56	87.9158	8.44407e-5
0.0415538	0.923604	22.2267	10.0001	31.4635	702.861	86.33	87.8144	8.46666e-5
0.0453765	0.993801	21.9012	10.0001	33.8185	709.666	86.18	87.7436	8.45704e-5
0.0488114	1.06568	21.8325	10.0001	36.3188	716.585	85.98	87.7061	8.46896e-5
0.0536046	1.15522	21.5508	10.0001	39.1457	723.404	85.72	87.6400	8.42025e-5
0.0593254	1.24329	20.9572	10.0001	42.2440	729.691	85.49	87.5375	8.44210e-5
0.0647177	1.33397	20.6121	10.0001	45.3962	736.283	85.29	87.4671	8.45560e-5
0.0719993	1.42945	19.8537	10.0001	48.6650	742.860	85.07	87.3380	8.45782e-5
0.0774032	1.54636	19.9780	10.0001	52.3978	749.718	84.76	87.3309	8.41912e-5
0.0881508	1.67670	19.0208	10.0001	56.6708	756.607	84.56	87.1623	8.39572e-5
0.0959772	1.80987	18.8572	10.0001	61.3276	763.465	84.34	87.1142	8.41818e-5
0.106893	1.94274	18.1747	10.0001	65.9661	770.135	84.10	86.9806	8.43376e-5
0.117028	2.09205	17.8764	10.0001	70.9177	776.978	83.92	86.9083	8.41889e-5
0.131251	2.26700	17.2723	10.0001	76.5240	783.586	83.66	86.7756	8.38289e-5
0.148018	2.45918	16.6140	10.0001	82.9167	790.432	83.42	86.6241	8.37309e-5
0.165619	2.64992	16.0000	10.0001	89.6725	797.227	83.24	86.4737	8.40131e-5
0.184943	2.85997	15.4641	10.0001	96.6800	803.944	83.02	86.3314	8.39121e-5
0.203939	3.08143	15.1095	10.0001	104.198	810.708	82.78	86.2268	8.39331e-5
0.227652	3.33065	14.6304	10.0001	112.301	817.550	82.56	86.0845	8.36773e-5
0.258055	3.59540	13.9327	10.0001	121.290	824.388	82.32	85.8709	8.37070e-5
0.289969	3.89196	13.4220	10.0001	131.091	831.233	82.07	85.6960	8.35594e-5
0.323925	4.21706	13.0186	10.0001	141.817	837.996	81.85	85.5447	8.34146e-5
0.361151	4.52973	12.5425	10.0001	153.046	844.281	81.68	85.3607	8.37899e-5
0.411278	4.95101	12.0381	10.0001	165.421	851.114	81.41	85.1477	8.28372e-5
0.470334	5.36967	11.4167	10.0001	180.138	858.065	81.15	84.8689	8.31457e-5
0.536672	5.83040	10.8640	10.0001	195.444	864.829	81.00	84.5928	8.30497e-5
0.601096	6.31061	10.4985	10.0001	211.847	871.750	80.78	84.3880	8.31488e-5
0.683574	6.81338	9.96729	10.0001	228.968	878.373	80.49	84.0768	8.32039e-5
0.762776	7.33070	9.61055	10.0001	246.931	884.965	80.30	83.8425	8.33744e-5
0.854380	7.93073	9.28244	10.0001	266.049	891.818	80.07	83.6080	8.29999e-5
0.985115	8.62615	8.75650	10.0001	287.867	898.693	79.90	83.2122	8.25141e-5
1.12287	9.35348	8.32995	10.0001	312.894	905.446	79.64	82.8513	8.26641e-5
1.27991	10.1465	7.92752	10.0001	339.242	912.061	79.41	82.4749	8.25660e-5
1.44603	10.9864	7.59764	10.0001	367.847	918.904	79.15	82.1324	8.26426e-5
1.65028	11.8580	7.18548	10.0001	397.776	925.563	78.98	81.6729	8.27224e-5
1.86433	12.8628	6.89940	10.0001	430.114	932.413	78.71	81.3094	8.24139e-5
2.16562	14.0112	6.46984	10.0001	466.659	939.301	78.51	80.7254	8.19864e-5
2.47620	15.2286	6.15001	10.0001	508.359	946.137	78.25	80.2291	8.20832e-5
2.82637	16.4828	5.83179	10.0001	552.168	952.838	78.06	79.6866	8.22691e-5
3.21730	17.9261	5.57179	10.0001	598.025	959.681	77.81	79.1870	8.18412e-5
3.69971	19.4244	5.25026	10.0001	648.991	966.556	77.53	78.5215	8.18329e-5
4.22761	21.0520	4.97964	10.0001	703.553	973.413	77.39	77.8891	8.17168e-5
4.79688	22.6892	4.73000	10.0001	762.229	980.146	77.17	77.2453	8.20035e-5
5.40131	24.4878	4.53368	10.0001	822.190	986.972	76.96	76.6771	8.18350e-5
6.16636	26.4233	4.28506	10.0001	887.088	993.799	76.69	75.9080	8.16437e-5
6.98957	28.4869	4.07562	10.0001	958.714	1000.37	76.43	75.1819	8.16726e-5
8.01965	30.8438	3.84603	10.0001	1035.63	1007.16	76.26	74.3062	8.12512e-5
9.11159	33.3101	3.65579	10.0001	1123.43	1014.05	75.96	73.4920	8.13978e-5
10.3801	36.0133	3.46947	10.0001	1215.42	1020.97	75.74	72.6131	8.12113e-5
11.7852	38.7501	3.28804	10.0001	1316.86	1027.71	75.54	71.6757	8.15037e-5
13.1985	41.5979	3.15171	10.0001	1421.11	1034.45	75.30	70.8849	8.17028e-5
14.9672	44.7772	2.99169	10.0001	1529.00	1041.13	75.10	69.8908	8.13545e-5
17.0456	48.1664	2.82574	10.0001	1651.32	1047.90	74.85	68.7633	8.13021e-5
19.2033	51.6418	2.68922	10.0001	1783.97	1054.84	74.67	67.7290	8.15648e-5
21.6445	55.2500	2.55261	10.0001	1920.51	1061.68	74.40	66.6054	8.16681e-5
24.3497	59.3120	2.43584	10.0001	2064.96	1068.38	74.20	65.5340	8.14084e-5
27.6930	63.7109	2.30061	10.0001	2226.20	1075.24	73.94	64.2061	8.11870e-5
31.5354	68.6071	2.17556	10.0001	2406.77	1082.07	73.74	62.8415	8.09534e-5
35.1627	72.8228	2.07102	10.0001	2607.71	1088.82	73.54	61.6075	8.20985e-5
38.6433	77.0457	1.99376	10.0001	2785.64	1095.50	73.35	60.5984	8.24711e-5
42.8071	81.3083	1.89941	10.0001	2961.17	1101.78	73.04	59.3237	8.24638e-5
47.5059	86.1284	1.81300	10.0001	3148.65	1108.59	72.87	58.0459	8.21655e-5
52.7911	91.2318	1.72817	10.0001	3359.79	1115.29	72.66	56.6982	8.20933e-5
58.3252	96.3136	1.65132	10.0001	3587.41	1122.15	72.41	55.3870	8.23558e-5
64.3547	101.246	1.57325	10.0001	3817.54	1128.98	72.18	53.9823	8.25720e-5
70.8872	106.512	1.50255	10.0001	4051.70	1135.87	71.95	52.6079	8.25285e-5
78.2010	111.923	1.43122	10.0001	4302.96	1142.63	71.71	51.1381	8.25109e-5
85.5162	117.236	1.37092	10.0001	4569.68	1149.45	71.46	49.8046	8.28391e-5
93.1992	122.360	1.31289	10.0001	4833.39	1156.15	71.25	48.4586	8.30633e-5
101.857	127.479	1.25155	10.0001	5097.84	1162.93	71.07	46.9750	8.30322e-5
109.561	131.832	1.20327	10.0001	5377.94	1169.10	70.91	45.7427	8.37879e-5
118.691	136.673	1.15150	10.0001	5622.94	1176.00	70.66	44.3589	8.34223e-5
128.245	141.427	1.10279	10.0001	5904.02	1182.84	70.33	42.9955	8.35525e-5
138.632	146.203	1.05462	10.0001	6190.07	1189.66	70.16	41.5880	8.35273e-5
149.185	150.899	1.01149	10.0001	6490.88	1196.44	69.94	40.2664	8.37039e-5
160.103	155.218	0.969490	10.0001	6792.06	1203.34	69.70	38.9401	8.38896e-5
172.428	159.430	0.924621	10.0001	7090.99	1210.15	69.44	37.4831	8.37795e-5
184.593	163.529	0.885894	10.0001	7412.71	1217.04	69.19	36.1659	8.39966e-5
197.019	167.170	0.848497	10.0001	7728.00	1223.83	68.99	34.8632	8.41955e-5
209.926	170.318	0.811322	10.0001	8038.46	1230.71	68.76	33.5403	8.43370e-5
222.675	173.640	0.779791	10.0001	8347.33	1237.49	68.60	32.3664	8.44465e-5
235.695	176.215	0.747640	10.0001	8654.94	1244.30	68.32	31.1617	8.46390e-5
249.357	178.605	0.716264	10.0001	8953.74	1251.10	68.14	29.9580	8.46536e-5
263.171	180.491	0.685830	10.0001	9260.75	1258.01	67.85	28.7731	8.48095e-5
277.300	182.512	0.658175	10.0001	9561.43	1264.83	67.62	27.6623	8.48295e-5
290.231	183.703	0.632956	10.0001	9868.48	1271.01	67.44	26.6452	8.52143e-5
304.172	184.772	0.607457	10.0001	10139.3	1277.86	67.22	25.5997	8.51345e-5
318.171	185.387	0.582665	10.0001	10426.8	1284.75	66.97	24.5739	8.52440e-5
332.680	185.629	0.557982	10.0001	10708.3	1291.56	66.75	23.5430	8.52763e-5
347.062	186.077	0.536150	10.0001	10993.5	1298.28	66.51	22.6091	8.53358e-5
117.237	108.804	0.928070	10.0001	11275.1	1304.57	66.30	39.1412	1.88954e-4
371.855	191.053	0.513782	10.0001	5339.52	1311.40	66.07	21.5291	3.95549e-5
145.182	4.90732	0.0338012	10.0001	11811.2	1318.28	65.86	1.77058	2.21103e-4
400.163	173.815	0.434361	10.0001	4856.32	1325.18	65.68	18.3963	3.49450e-5
64.3366	-241.212	-3.74923	10.0001	12163.5	1332.00	65.42	-66.5916	1.27585e-4
97.1296	-48.5759	-0.500114	10.0001	8266.16	1338.76	65.20	-24.8871	2.01219e-4
433.453	177.192	0.408792	10.0001	3786.01	1345.68	64.99	17.1406	2.58157e-5
38.8739	364.416	9.37429	10.0001	12818.3	1352.48	64.70	71.0282	9.14616e-5
443.641	150.117	0.338376	10.0001	12097.6	1359.26	64.51	14.3979	8.28043e-5
128.382	67.9312	0.529135	10.0001	12787.4	1366.16	64.29	25.5742	2.37216e-4
89.6994	9.01579	0.100511	10.0001	4888.21	1373.01	64.08	5.42580	1.42631e-4
447.859	147.005	0.328240	10.0001	3222.78	1379.91	63.81	13.9729	2.19615e-5
98.5755	210.864	2.13911	10.0001	12838.4	1386.73	63.59	57.6761	1.47051e-4
30.0469	-122.345	-4.07181	10.0001	7649.82	1393.54	63.33	-71.7890	1.54387e-4
5.19580	114.755	22.0860	10.0001	4338.91	1400.35	63.14	83.2021	9.44951e-5
401.730	104.397	0.259869	10.0001	3969.85	1407.22	62.87	11.5124	2.99765e-5
33.0897	185.255	5.59859	10.0001	11604.0	1414.12	62.71	73.2180	1.57668e-4
499.431	97.4104	0.195043	10.0001	6401.56	1420.87	62.43	8.32111	4.13861e-5
402.339	127.189	0.316125	10.0001	13512.9	1427.77	62.19	13.8242	1.00471e-4
615.574	176.541	0.286791	10.0001	11847.1	1434.51	61.96	11.3515	6.44439e-5
462.411	149.154	0.322558	10.0001	16024.7	1441.38	61.76	13.6479	1.06715e-4
409.277	340.814	0.832722	10.0001	13215.2	1448.21	61.53	29.9389	7.91221e-5
301.055	191.060	0.634636	10.0001	14587.1	1454.98	61.30	26.5216	1.22086e-4
608.072	247.158	0.406461	10.0001	10543.7	1461.88	61.08	15.5992	5.59361e-5
477.670	-12.7326	-0.0266556	10.0001	16472.9	1468.80	60.85	-1.16789	1.12082e-4
360.991	310.912	0.861272	10.0001	12946.0	1475.60	60.64	31.5174	8.43618e-5
141.266	180.880	1.28042	10.0001	13436.5	1481.73	60.40	45.9225	1.59731e-4
-72.3887	-179.600	2.48105	10.0001	7448.24	1488.75	60.15	254.956	9.18644e-5
-72.6441	-92.7873	1.27729	10.0001	6876.18	1495.48	59.96	235.523	1.38594e-4
534.106	90.0761	0.168648	10.0001	4071.92	1502.30	59.73	7.10312	2.51432e-5
73.1283	225.469	3.08320	10.0001	14189.0	1508.86	59.49	64.1442	1.57366e-4
13.4327	-131.578	-9.79537	10.0001	7890.01	1515.76	59.30	-79.3763	1.50161e-4
580.716	78.1313	0.134543	10.0001	4551.12	1522.54	59.05	5.56701	2.65507e-5
520.706	-43.3035	-0.0831630	10.0001	15023.9	1529.35	58.88	-3.55845	9.54825e-5
248.904	-306.127	-1.22990	10.0001	13821.4	1536.26	58.62	-41.2514	1.02511e-4
276.650	-3.79188	-0.0137064	10.0001	11795.9	1543.10	58.35	-0.666627	1.24898e-4
632.667	93.3908	0.147614	10.0001	8409.49	1549.81	58.13	5.95183	4.60539e-5
-247.588	293.425	-1.18514	10.0001	15972.9	1556.39	57.97	117.501	8.91416e-5
623.269	87.1615	0.139846	10.0001	15249.7	1563.18	57.69	5.66892	8.44956e-5
58.3829	183.853	3.14909	10.0001	15790.8	1569.88	57.46	65.8809	2.12602e-4
649.434	72.7538	0.112027	10.0001	6529.00	1576.76	57.25	4.50131	3.52494e-5
630.300	85.4279	0.135535	10.0001	16202.9	1583.61	57.02	5.47927	8.91097e-5
527.839	-6.93703	-0.0131423	10.0001	15916.9	1590.37	56.80	-0.562075	1.00452e-4
575.117	-113.996	-0.198213	10.0001	13890.4	1597.25	56.56	-8.14739	8.08389e-5
198.840	89.6846	0.451040	10.0001	15043.2	1604.07	56.32	21.3495	1.93702e-4
648.591	57.1326	0.0880873	10.0001	6950.93	1610.80	56.12	3.54846	3.76413e-5
363.743	-241.421	-0.663714	10.0001	16146.4	1617.55	55.89	-26.3988	1.14390e-4
246.072	271.088	1.10166	10.0001	12386.5	1624.29	55.67	39.2077	9.85630e-5
220.730	-262.826	-1.19071	10.0001	11052.2	1631.07	55.40	-41.5544	9.24604e-5
373.158	-114.252	-0.306177	10.0001	10498.8	1637.86	55.22	-13.6316	8.31179e-5
-18.5791	203.934	-10.9765	10.0001	11146.7	1644.72	54.99	87.6433	1.34928e-4
667.458	74.4228	0.111502	10.0001	7126.72	1651.56	54.81	4.44389	3.77451e-5
660.676	81.3083	0.123068	10.0001	16509.2	1658.51	54.53	4.91375	8.79530e-5
654.393	92.2577	0.140982	10.0001	16424.0	1665.31	54.33	5.63286	8.78981e-5
175.089	-68.9913	-0.394035	10.0001	16352.1	1672.04	54.07	-19.2225	2.40635e-4
15.2156	-104.274	-6.85312	10.0001	6129.42	1678.85	53.84	-77.9007	1.46391e-4
662.461	44.5047	0.0671809	10.0001	3661.66	1685.68	53.58	2.69336	1.95657e-5
667.127	74.3512	0.111450	10.0001	16380.2	1692.59	53.35	4.44247	8.67833e-5
669.000	71.3966	0.106721	10.0001	16516.1	1699.39	53.11	4.25231	8.73675e-5
195.851	-208.250	-1.06331	10.0001	16549.6	1706.30	52.93	-39.9726	1.63251e-4
-151.657	-63.6031	0.419388	10.0001	8937.16	1713.09	52.68	205.348	1.22097e-4
-80.6220	-110.583	1.37162	10.0001	6010.97	1719.99	52.45	238.195	1.03851e-4
692.836	63.0164	0.0909543	10.0001	4812.36	1726.68	52.26	3.59081	2.48821e-5
246.267	-247.087	-1.00333	10.0001	16931.7	1733.55	52.02	-37.2831	1.41153e-4
684.221	62.7673	0.0917354	10.0001	10543.8	1740.46	51.77	3.63532	5.49849e-5
571.892	60.1622	0.105198	10.0001	16772.1	1747.24	51.60	4.38445	9.92525e-5
266.069	-125.190	-0.470518	10.0001	14809.8	1754.08	51.33	-21.2642	1.47040e-4
86.9062	82.2027	0.945879	10.0001	8929.39	1760.90	51.11	40.5417	1.96267e-4
29.6457	87.5678	2.95381	10.0001	4159.40	1767.68	50.92	68.1365	1.14201e-4
-44.8316	-37.0520	0.826472	10.0001	3259.03	1774.44	50.67	220.975	1.35361e-4
1721.28	229.722	0.133460	10.0001	1858.07	1781.26	50.45	3.59001	5.62137e-6
247.551	347.354	1.40316	10.0001	28697.2	1787.87	50.25	43.6128	1.97538e-4
692.426	101.454	0.146519	10.0001	12713.8	1794.67	49.96	5.75025	6.53757e-5
-258.663	-344.863	1.33325	10.0001	17018.3	1801.36	49.73	248.033	8.46862e-5
687.453	75.4263	0.109719	10.0001	17148.9	1808.15	49.52	4.33441	8.89943e-5
-124.057	400.061	-3.22483	10.0001	16866.3	1814.97	49.29	91.6017	9.56828e-5
520.405	12.2435	0.0235270	10.0001	15153.9	1821.81	49.09	1.00965	9.66399e-5
215.185	53.2814	0.247608	10.0001	13782.6	1828.62	48.85	12.1829	1.76111e-4
175.078	-11.6043	-0.0662810	10.0001	7025.38	1835.48	48.62	-3.40776	1.10794e-4
-57.7994	92.4175	-1.59894	10.0001	5754.04	1842.41	48.41	118.492	1.26635e-4
-62.4820	-28.8494	0.461723	10.0001	3784.77	1849.07	48.23	205.889	1.31283e-4
729.795	89.4932	0.122628	10.0001	2207.42	1855.68	47.95	4.74742	1.09802e-5
249.425	166.633	0.668068	10.0001	17576.9	1862.53	47.74	28.4682	1.69832e-4
705.232	52.2319	0.0740634	10.0001	9167.08	1869.44	47.56	2.91157	4.68772e-5
260.614	468.051	1.79595	10.0001	17119.8	1876.25	47.29	46.4301	9.58345e-5
260.376	375.714	1.44297	10.0001	15574.5	1883.08	47.05	43.5813	1.01029e-4
108.968	177.029	1.62460	10.0001	13473.6	1889.96	46.85	52.3120	1.73454e-4
681.765	80.3807	0.117901	10.0001	6866.68	1896.82	46.60	4.66543	3.58088e-5
294.317	-127.121	-0.431920	10.0001	16783.7	1903.50	46.39	-19.4273	1.55218e-4
67.1495	-141.143	-2.10191	10.0001	9572.29	1910.13	46.09	-59.5842	1.59483e-4
729.303	77.0003	0.105581	10.0001	5312.13	1917.01	45.95	4.09586	2.64820e-5
321.264	93.4224	0.290797	10.0001	17551.3	1923.84	45.68	13.3628	1.57610e-4
715.970	53.8451	0.0752058	10.0001	9868.60	1930.66	45.49	2.94230	4.99427e-5
502.136	312.766	0.622871	10.0001	17279.1	1937.40	45.25	23.2696	9.72069e-5
42.5068	-398.279	-9.36977	10.0001	15554.8	1944.34	44.97	-69.9049	1.02264e-4
-18.2599	343.835	-18.8300	10.0001	13169.1	1951.14	44.77	80.4249	9.63331e-5
718.163	66.5790	0.0927074	10.0001	11819.5	1957.96	44.54	3.61854	5.96133e-5
356.596	-430.496	-1.20724	10.0001	17356.7	1964.81	44.31	-37.6679	9.73079e-5
715.074	72.9054	0.101955	10.0001	15569.6	1971.68	44.08	3.98163	7.86989e-5
512.636	-7.55486	-0.0147373	10.0001	17314.6	1978.38	43.90	-0.634919	1.11693e-4
463.092	-229.462	-0.495500	10.0001	13628.4	1985.24	43.65	-19.8697	8.56662e-5
149.282	96.7316	0.647980	10.0001	13954.7	1992.01	43.39	29.6940	2.14197e-4
734.221	61.3293	0.0835297	10.0001	5868.41	1998.90	43.16	3.23971	2.91744e-5
740.623	72.4673	0.0978464	10.0001	17595.4	2005.75	43.00	3.77972	8.68604e-5
319.577	-261.481	-0.818208	10.0001	17706.3	2012.60	42.74	-31.3473	1.29815e-4
210.084	64.2009	0.305596	10.0001	11976.5	2019.38	42.49	14.9095	1.54011e-4
723.046	57.1244	0.0790051	10.0001	6981.30	2026.23	42.32	3.08046	3.50850e-5
-252.430	381.420	-1.51099	10.0001	17410.7	2032.97	42.08	107.169	8.26245e-5
701.753	48.7011	0.0693991	10.0001	18035.7	2039.84	41.82	2.73336	9.25767e-5
410.216	85.0090	0.207230	10.0001	17051.3	2046.56	41.62	9.23032	1.28068e-4
704.328	38.5760	0.0547699	10.0001	11746.4	2053.47	41.36	2.15649	6.01879e-5
139.944	300.273	2.14567	10.0001	17057.0	2060.32	41.14	54.9633	1.41758e-4
681.022	38.9463	0.0571881	10.0001	10517.3	2067.05	40.93	2.27498	5.51556e-5
700.928	45.1647	0.0644357	10.0001	16687.6	2073.65	40.71	2.53958	8.57514e-5
674.781	41.4445	0.0614192	10.0001	17032.9	2080.50	40.47	2.44948	8.98709e-5
318.360	-257.444	-0.808656	10.0001	16601.3	2087.26	40.20	-31.1343	1.22642e-4
-43.0340	-187.694	4.36153	10.0001	11884.1	2093.99	40.00	264.164	1.50372e-4
145.579	-90.9129	-0.624491	10.0001	6745.29	2100.72	39.78	-28.9243	1.07047e-4

[step]
Temperature ramp - 5
Stress	Shear rate	Viscosity	Step time	Temperature	Normal stress	Storage modulus	Loss modulus	Tan(delta)	Complex modulus	Oscillation displacement	Oscillation strain	Oscillation strain rate	Oscillation stress	Oscillation torque
MPa	1/s	Pa.s	s	°C	MPa	MPa	MPa		MPa	rad	%	1/s	MPa	µN.m
-2.81827e-4	-1.84740e-3	152553	6.17370	40.24	-0.401345	262.832	295.722	1.12514	395.641	1.60958e-4	0.0543560	5.43564e-3	0.215055	21619.3
-2.81673e-4	3.31793e-4	-848943	13.0008	40.56	-0.423352	723.116	150.096	0.207568	738.530	5.83311e-5	0.0158889	1.58890e-3	0.117345	11796.6
-2.59027e-4	1.21827e-4	-2126190	19.7340	40.85	-0.450838	713.401	127.794	0.179134	724.757	8.87105e-5	0.0242815	2.42817e-3	0.175982	17691.4
-3.32457e-4	2.29632e-3	-144778	26.5642	41.08	-0.454590	-86.5264	440.125	-5.08660	448.550	9.53117e-5	0.0386749	3.86751e-3	0.173476	17439.7
-2.76759e-4	-3.50761e-3	78902.2	33.2504	41.33	-0.477620	-251.084	-192.491	0.766641	316.380	1.05027e-4	0.0495712	4.95716e-3	0.156833	15766.8
-2.53628e-4	-3.76482e-3	67368.0	40.1097	41.52	-0.486899	112.075	-95.8388	-0.855128	147.465	2.30037e-4	0.0856848	8.56854e-3	0.126355	12702.1
-2.84300e-4	7.56349e-4	-375885	46.8828	41.76	-0.507275	809.481	18.2715	0.0225718	809.687	2.33116e-5	6.13138e-3	6.13142e-4	0.0496449	4990.79
-2.10236e-4	2.71001e-3	-77577.5	53.7368	42.02	-0.534530	714.131	94.5559	0.132407	720.364	9.43448e-5	0.0258349	2.58351e-3	0.186105	18709.1
-2.78277e-4	-3.28052e-3	84827.2	60.5316	42.24	-0.540526	174.717	-115.253	-0.659659	209.307	2.29697e-4	0.0824167	8.24172e-3	0.172504	17341.4
-2.03038e-4	-1.40520e-3	144490	67.4269	42.45	-0.560846	662.779	-13.2484	-0.0199891	662.911	3.61002e-5	0.0101228	1.01228e-3	0.0671050	6746.03
-2.47552e-4	1.50275e-3	-164732	74.0979	42.62	-0.572548	302.974	46.5213	0.153549	306.525	1.58689e-4	0.0531015	5.31018e-3	0.162769	16362.9
-2.61947e-4	7.96276e-4	-328965	80.8703	42.89	-0.591714	690.618	27.4078	0.0396860	691.162	4.76300e-5	0.0131896	1.31897e-3	0.0911615	9164.42
-1.79363e-4	1.25499e-3	-142919	87.6251	43.09	-0.608545	712.077	45.6604	0.0641228	713.539	8.56235e-5	0.0234840	2.34842e-3	0.167568	16845.5
-2.07880e-4	-2.91563e-3	71298.5	94.4782	43.34	-0.625081	71.5913	-289.095	-4.03812	297.827	1.52734e-4	0.0575003	5.75007e-3	0.171251	17215.9
-1.88857e-4	4.44810e-5	-4245790	101.300	43.61	-0.635693	719.547	43.7179	0.0607576	720.874	4.95057e-5	0.0135335	1.35336e-3	0.0975597	9807.63
-2.68982e-4	9.15570e-4	-293786	108.139	43.81	-0.644733	401.539	59.1913	0.147411	405.878	1.33639e-4	0.0424629	4.24632e-3	0.172348	17325.9
-2.00192e-4	1.19400e-3	-167664	114.878	43.99	-0.657576	284.685	-30.8025	-0.108198	286.347	1.17612e-4	0.0397542	3.97545e-3	0.113835	11443.6
-9.81579e-5	-1.85874e-3	52809.0	121.815	44.28	-0.656769	41.3775	220.111	5.31958	223.967	9.95309e-5	0.0384174	3.84176e-3	0.0860421	8649.81
-1.50773e-4	7.43898e-4	-202680	128.568	44.43	-0.667412	714.505	52.7783	0.0738669	716.451	3.84178e-5	0.0105249	1.05250e-3	0.0754057	7580.50
-1.12416e-4	-1.38252e-3	81312.5	135.536	44.71	-0.681104	324.846	46.5092	0.143173	328.159	1.58127e-4	0.0523036	5.23040e-3	0.171639	17254.6
-1.20796e-4	2.35332e-3	-51329.9	142.172	44.94	-0.688031	-136.328	205.088	-1.50437	246.265	9.01714e-5	0.0391302	3.91305e-3	0.0963640	9687.67
-1.57134e-4	4.75874e-4	-330200	149.059	45.15	-0.705033	716.024	55.6993	0.0777897	718.187	4.61426e-5	0.0126327	1.26328e-3	0.0907262	9120.67
-1.48084e-4	-1.41148e-3	104914	155.930	45.38	-0.711224	707.462	58.8261	0.0831509	709.904	8.81820e-5	0.0242306	2.42308e-3	0.172014	17292.5
-2.14267e-4	-1.14018e-3	187925	162.662	45.56	-0.708152	710.212	54.2872	0.0764379	712.284	8.73335e-5	0.0239692	2.39694e-3	0.170729	17163.3
-1.17015e-4	-1.41571e-3	82654.3	169.578	45.90	-0.717542	231.740	497.335	2.14609	548.676	9.29390e-5	0.0311668	3.11670e-3	0.171005	17191.1
-9.80713e-5	-2.10328e-3	46627.8	176.406	46.01	-0.720908	90.9747	355.115	3.90345	366.583	1.18249e-4	0.0436786	4.36789e-3	0.160118	16096.7
-7.12051e-5	4.39062e-4	-162175	183.250	46.34	-0.730625	702.347	57.9595	0.0825226	704.735	6.06605e-5	0.0167073	1.67075e-3	0.117742	11836.6
-1.30123e-4	-5.62655e-4	231266	190.057	46.60	-0.737325	487.761	-6.65450	-0.0136430	487.806	1.14353e-4	0.0348176	3.48178e-3	0.169842	17074.1
-1.26661e-4	8.67422e-4	-146021	196.821	46.79	-0.737930	706.119	64.9883	0.0920359	709.103	6.70291e-5	0.0184279	1.84281e-3	0.130673	13136.5
-1.17622e-4	-2.84098e-3	41402.1	203.601	46.93	-0.743779	-73.4930	-370.485	5.04110	377.704	1.10917e-4	0.0451753	4.51756e-3	0.170629	17153.5
-7.85959e-5	1.02242e-4	-768723	210.312	47.16	-0.756638	715.451	63.2952	0.0884689	718.246	6.73374e-5	0.0184361	1.84363e-3	0.132417	13311.8
-1.72821e-4	-3.23155e-3	53479.4	217.129	47.36	-0.754315	193.892	2.26466	0.0116800	193.905	2.49535e-4	0.0887363	8.87369e-3	0.172064	17297.1
-1.87678e-4	8.78502e-4	-213635	224.009	47.70	-0.763892	711.242	86.3770	0.121445	716.468	3.16842e-5	8.68810e-3	8.68816e-4	0.0622475	6257.71
-1.50604e-4	-3.38405e-3	44504.2	230.787	47.94	-0.781689	80.0064	-236.319	-2.95375	249.495	1.83002e-4	0.0688999	6.89004e-3	0.171902	17281.2
-1.71290e-4	7.08535e-4	-241752	237.533	48.19	-0.786412	712.782	61.0479	0.0856473	715.391	4.18447e-5	0.0114721	1.14722e-3	0.0820704	8250.50
-1.48627e-4	1.85530e-3	-80109.1	244.502	48.32	-0.784367	280.802	-7.08369	-0.0252266	280.891	1.80298e-4	0.0610799	6.10803e-3	0.171568	17247.4
-1.05551e-4	1.56056e-3	-67636.4	251.238	48.54	-0.787741	172.089	-133.247	-0.774292	217.645	1.08429e-4	0.0389302	3.89305e-3	0.0847297	8517.71
-1.03612e-4	-7.52377e-4	137713	257.471	48.78	-0.798739	708.654	43.4819	0.0613584	709.987	3.56715e-5	9.79820e-3	9.79827e-4	0.0695659	6993.43
-2.53107e-4	-5.97718e-4	423456	264.159	49.05	-0.802491	502.188	-84.5245	-0.168313	509.251	1.10868e-4	0.0334891	3.34893e-3	0.170543	17144.6
-1.24649e-4	2.02442e-3	-61572.7	271.006	49.24	-0.808957	164.248	205.248	1.24962	262.876	1.43264e-4	0.0514605	5.14609e-3	0.135278	13599.3
-2.04364e-4	3.27332e-3	-62433.3	277.877	49.47	-0.809056	24.0222	120.262	5.00631	122.638	1.73069e-4	0.0679787	6.79792e-3	0.0833678	8380.92
-2.25304e-4	3.94577e-4	-571001	284.609	49.69	-0.806975	723.337	99.7034	0.137838	730.177	2.12780e-5	5.80286e-3	5.80290e-4	0.0423711	4259.55
-1.38574e-4	-2.27837e-3	60821.6	291.440	49.89	-0.815188	-136.338	488.090	-3.58000	506.774	8.28437e-5	0.0343455	3.43457e-3	0.174054	17497.8
-1.61522e-4	-3.43752e-3	46988.0	298.146	50.13	-0.819393	149.370	143.767	0.962488	207.316	2.39864e-4	0.0872208	8.72213e-3	0.180823	18177.8
-1.73404e-4	-1.28344e-3	135109	305.008	50.32	-0.826229	189.484	-35.3509	-0.186564	192.753	9.78478e-5	0.0348764	3.48766e-3	0.0672254	6757.97
-2.76260e-4	1.77551e-3	-155594	311.718	50.61	-0.823030	104.467	106.655	1.02095	149.294	1.10846e-4	0.0414591	4.14594e-3	0.0618958	6222.22
-1.69395e-4	-3.19449e-3	53027.1	318.471	50.76	-0.825962	-9.87338	78.9621	-7.99748	79.5770	1.57185e-4	0.0631922	6.31926e-3	0.0502865	5055.38
-1.57623e-4	-3.33120e-4	473173	325.313	51.04	-0.838965	695.605	61.7628	0.0887901	698.341	1.42410e-5	3.93373e-3	3.93375e-4	0.0274708	2761.63
-1.98377e-4	-2.59448e-3	76461.2	332.141	51.26	-0.836335	222.398	-32.7417	-0.147221	224.795	2.14634e-4	0.0750899	7.50904e-3	0.168799	16968.9
-2.09675e-4	-6.73247e-4	311438	338.931	51.46	-0.828489	713.921	70.9232	0.0993431	717.435	3.59244e-5	9.84245e-3	9.84252e-4	0.0706133	7098.72
-2.50856e-4	1.60677e-3	-156125	345.739	51.76	-0.843553	269.856	215.479	0.798496	345.332	1.47055e-4	0.0497750	4.97753e-3	0.171889	17279.8
-2.30014e-4	2.30367e-3	-99846.7	352.589	52.02	-0.843931	125.627	134.974	1.07440	184.392	1.51579e-4	0.0559188	5.59192e-3	0.103110	10365.4
-2.21725e-4	-2.40991e-3	92005.5	359.453	52.12	-0.841106	-117.986	-90.9329	0.770708	148.962	9.45318e-5	0.0408337	4.08339e-3	0.0608265	6115.14
-2.81605e-4	-2.84688e-3	98916.9	366.252	52.42	-0.844954	82.2152	-7.06524	-0.0859359	82.5182	1.69126e-4	0.0642521	6.42526e-3	0.0530197	5329.66
-2.59530e-4	1.76269e-3	-147235	373.031	52.65	-0.844993	698.985	61.9138	0.0885768	701.721	1.54572e-5	4.26333e-3	4.26336e-4	0.0299167	3007.51
-3.35280e-4	-2.74625e-3	122086	379.639	52.84	-0.838377	160.434	-210.388	-1.31137	264.579	1.77761e-4	0.0639671	6.39675e-3	0.169244	17013.9
-3.36406e-4	-2.55742e-3	131541	386.482	53.05	-0.842769	701.935	45.0700	0.0642082	703.381	4.32936e-5	0.0119265	1.19266e-3	0.0838887	8433.29
-3.80696e-4	1.63475e-3	-232876	393.183	53.26	-0.842765	690.212	85.2517	0.123515	695.457	8.81206e-5	0.0243907	2.43908e-3	0.169627	17052.5
-3.16562e-4	1.38122e-3	-229190	400.013	53.49	-0.842117	686.995	92.5870	0.134771	693.206	8.76724e-5	0.0242976	2.42977e-3	0.168432	16932.4
-2.86441e-4	6.01466e-4	-476238	406.802	53.77	-0.837171	687.237	83.1071	0.120929	692.243	8.76376e-5	0.0242897	2.42898e-3	0.168144	16903.4
-3.98876e-4	5.29539e-4	-753252	413.653	53.98	-0.839125	511.739	287.732	0.562264	587.083	9.58480e-5	0.0285661	2.85663e-3	0.167707	16859.5
-2.98674e-4	-2.83483e-3	105359	420.443	54.21	-0.837338	-21.7122	-321.642	14.8139	322.374	1.19741e-4	0.0475385	4.75388e-3	0.153252	15406.5
-3.13565e-4	5.11920e-4	-612527	427.254	54.49	-0.841950	653.048	78.8064	0.120675	657.786	5.95369e-5	0.0167585	1.67587e-3	0.110235	11081.9
-3.16523e-4	-2.00636e-3	157760	434.014	54.66	-0.831780	69.5528	398.526	5.72984	404.550	1.07678e-4	0.0400393	4.00396e-3	0.161979	16283.8
-3.00030e-4	1.66745e-3	-179934	440.969	54.87	-0.845722	232.381	-163.388	-0.703102	284.072	1.32498e-4	0.0459133	4.59136e-3	0.130427	13111.6
-3.71372e-4	2.74652e-3	-135216	447.784	55.09	-0.836984	679.839	77.5793	0.114114	684.252	4.57917e-5	0.0127349	1.27350e-3	0.0871389	8760.03
-3.27802e-4	-1.17369e-3	279293	454.603	55.29	-0.831457	353.059	-71.4727	-0.202438	360.220	1.41892e-4	0.0462183	4.62186e-3	0.166488	16736.8
-3.95317e-4	-7.19358e-4	549541	461.375	55.58	-0.832472	674.181	69.8436	0.103598	677.789	5.48703e-5	0.0153002	1.53003e-3	0.103703	10425.2
-3.78119e-4	2.50754e-3	-150793	468.129	55.77	-0.826384	202.461	106.064	0.523874	228.561	2.04789e-4	0.0723435	7.23440e-3	0.165349	16622.2
-3.76729e-4	-1.02889e-3	366152	474.813	56.02	-0.827526	193.445	159.729	0.825708	250.868	8.12160e-5	0.0287687	2.87688e-3	0.0721712	7255.26
-3.16587e-4	-5.97190e-4	530128	481.604	56.26	-0.819246	671.753	67.9726	0.101187	675.183	4.18436e-5	0.0116810	1.16810e-3	0.0788679	7928.55
-4.61703e-4	2.67670e-3	-172490	488.471	56.53	-0.816143	48.7193	296.917	6.09445	300.888	1.43605e-4	0.0547641	5.47644e-3	0.164778	16565.2
-3.56974e-4	-2.70971e-4	1317390	494.673	56.66	-0.810998	671.482	62.9992	0.0938211	674.431	5.29894e-5	0.0147946	1.47947e-3	0.0997797	10030.8
-3.92233e-4	1.48657e-3	-263851	501.516	56.95	-0.803585	269.621	208.906	0.774815	341.082	1.42657e-4	0.0483111	4.83114e-3	0.164780	16565.2
-4.19265e-4	1.18829e-3	-352830	508.438	57.14	-0.792222	227.895	162.046	0.711055	279.634	1.04834e-4	0.0364211	3.64214e-3	0.101846	10238.4
-3.75305e-4	4.69188e-4	-799904	515.268	57.38	-0.781467	677.728	112.190	0.165539	686.951	4.50817e-5	0.0125413	1.25414e-3	0.0861526	8660.88
-4.34787e-4	6.14774e-4	-707231	521.454	57.62	-0.769450	490.157	-85.3385	-0.174104	497.530	1.10539e-4	0.0335852	3.35855e-3	0.167097	16798.1
-4.41151e-4	2.39179e-3	-184444	528.363	57.78	-0.765197	102.220	-251.013	-2.45561	271.028	1.32027e-4	0.0489907	4.89911e-3	0.132779	13348.2
-4.54332e-4	9.78590e-4	-464272	535.201	58.05	-0.758656	650.343	82.5515	0.126935	655.562	4.75493e-5	0.0133996	1.33997e-3	0.0878428	8830.79
-4.55542e-4	-6.94259e-4	656156	541.907	58.28	-0.748577	411.915	38.7421	0.0940537	413.733	1.23554e-4	0.0390591	3.90594e-3	0.161600	16245.5
-4.74894e-4	-1.03281e-3	459809	548.572	58.53	-0.726518	644.569	81.0178	0.125693	649.640	6.28225e-5	0.0177516	1.77517e-3	0.115321	11593.2
-5.21377e-4	2.94510e-3	-177032	555.322	58.72	-0.716313	171.102	-138.602	-0.810054	220.196	2.03136e-4	0.0729602	7.29607e-3	0.160656	16150.4
-4.73366e-4	-1.87504e-4	2524560	562.211	58.96	-0.716325	632.566	89.7962	0.141956	638.908	3.87593e-5	0.0110096	1.10096e-3	0.0703409	7071.33
-4.10819e-4	-2.26510e-3	181369	569.074	59.14	-0.702550	218.483	62.6218	0.286621	227.280	1.99304e-4	0.0698500	6.98505e-3	0.158755	15959.3
-4.94178e-4	-2.71356e-4	1821140	575.889	59.41	-0.694198	635.400	96.3643	0.151659	642.666	3.91254e-5	0.0110981	1.10982e-3	0.0713238	7170.14
-4.81946e-4	6.20974e-5	-7761130	582.636	59.64	-0.668248	619.744	123.632	0.199489	631.955	8.83690e-5	0.0252313	2.52315e-3	0.159451	16029.5
-4.18001e-4	7.78822e-4	-536709	589.460	59.84	-0.659244	373.430	198.323	0.531085	422.826	1.16428e-4	0.0373523	3.73526e-3	0.157935	15877.1
-4.06960e-4	-1.43300e-3	283991	596.410	60.07	-0.641772	616.972	105.876	0.171606	625.990	6.66492e-5	0.0190609	1.90610e-3	0.119319	11995.1
-5.26334e-4	2.41290e-3	-218134	603.143	60.30	-0.621747	214.923	-50.2237	-0.233683	220.713	2.02031e-4	0.0709641	7.09646e-3	0.156627	15745.3
-4.80819e-4	-1.68034e-4	2861440	609.423	60.61	-0.605768	607.062	97.9123	0.161289	614.908	3.93165e-5	0.0112985	1.12986e-3	0.0694752	6984.30
-5.68537e-4	6.93824e-4	-819426	616.326	60.69	-0.585217	456.671	-111.928	-0.245095	470.187	1.06580e-4	0.0328985	3.28987e-3	0.154685	15550.3
-4.23889e-4	-1.80163e-3	235281	623.047	60.93	-0.575803	194.025	132.858	0.684747	235.153	1.52730e-4	0.0541564	5.41567e-3	0.127350	12802.3
-4.37669e-4	7.52711e-4	-581457	629.670	61.22	-0.552912	599.816	115.064	0.191832	610.753	4.21909e-5	0.0121603	1.21604e-3	0.0742694	7466.26
-4.46258e-4	-2.12123e-3	210377	636.610	61.41	-0.536392	581.067	108.412	0.186574	591.094	8.95748e-5	0.0260451	2.60453e-3	0.153951	15476.6
-4.13259e-4	-7.37201e-4	560578	643.366	61.61	-0.506256	573.996	102.693	0.178909	583.110	8.83222e-5	0.0257704	2.57705e-3	0.150270	15106.5
-4.64382e-4	-3.15018e-4	1474140	650.143	61.91	-0.483644	471.832	173.285	0.367260	502.646	9.68616e-5	0.0296157	2.96159e-3	0.148862	14965.0
-4.05161e-4	-2.51258e-3	161253	656.985	62.09	-0.467780	181.460	35.6991	0.196732	184.939	2.03445e-4	0.0728567	7.28571e-3	0.134740	13545.0
-4.51237e-4	5.62686e-4	-801935	663.766	62.31	-0.446736	477.830	178.147	0.372825	509.959	3.84010e-5	0.0117032	1.17033e-3	0.0596817	5999.76
-4.19593e-4	-6.55390e-4	640219	670.636	62.52	-0.424136	712.451	269.092	0.377698	761.576	6.59162e-5	0.0179533	1.79534e-3	0.136728	13745.2
-3.84334e-4	3.23336e-4	-1188650	677.463	62.81	-0.403740	421.323	167.228	0.396912	453.297	1.27151e-4	0.0398703	3.98706e-3	0.180731	18168.7
-3.89136e-4	1.81822e-3	-214021	684.297	63.01	-0.380845	242.339	-20.5842	-0.0849396	243.212	1.48654e-4	0.0514366	5.14370e-3	0.125100	12576.0
-3.46052e-4	-4.58469e-4	754798	690.422	63.30	-0.360497	497.181	290.270	0.583833	575.713	4.35425e-5	0.0130664	1.30665e-3	0.0752249	7562.32
-3.89698e-4	-1.47898e-4	2634910	697.137	63.39	-0.338485	424.650	134.791	0.317417	445.529	1.07831e-4	0.0337963	3.37965e-3	0.150572	15136.9
-3.57030e-4	1.09594e-4	-3257750	703.855	63.65	-0.309050	387.994	182.801	0.471145	428.900	8.94046e-5	0.0284925	2.84927e-3	0.122204	12285.1
-2.77155e-4	5.54159e-4	-500137	710.732	63.90	-0.297174	305.458	143.775	0.470687	337.603	1.06337e-4	0.0354429	3.54431e-3	0.119656	12028.9
-2.23015e-4	-7.29953e-4	305520	717.535	64.14	-0.269873	450.873	98.8212	0.219178	461.576	6.92328e-5	0.0214402	2.14403e-3	0.0989627	9948.63
-2.50346e-4	2.18324e-3	-114667	724.381	64.33	-0.244235	185.454	-129.248	-0.696926	226.049	1.55424e-4	0.0553896	5.53900e-3	0.125208	12586.9
-6.84515e-5	-9.69651e-4	70594.0	731.144	64.51	-0.219055	191.991	91.6894	0.477571	212.762	9.44433e-5	0.0335761	3.35764e-3	0.0714372	7181.41
-9.38856e-5	-8.11607e-4	115679	737.924	64.76	-0.191969	457.680	157.514	0.344159	484.026	4.52719e-5	0.0139457	1.39458e-3	0.0675007	6785.79
-3.22477e-5	1.95803e-3	-16469.4	744.798	65.10	-0.166702	8.25982	328.199	39.7344	328.303	1.02000e-4	0.0397194	3.97197e-3	0.130400	13109.2
-1.40179e-4	1.91502e-4	-731997	751.630	65.23	-0.141848	423.768	170.061	0.401307	456.618	7.69898e-5	0.0241091	2.41093e-3	0.110087	11066.9
1.21744e-5	2.88040e-4	42266.2	758.531	65.50	-0.118831	337.343	169.758	0.503221	377.648	1.01246e-4	0.0331441	3.31443e-3	0.125168	12583.0
7.11904e-5	8.08815e-4	88018.1	765.293	65.70	-0.0945926	257.151	80.9776	0.314903	269.600	1.17344e-4	0.0402349	4.02352e-3	0.108473	10904.6
4.99546e-5	-9.16154e-4	-54526.4	772.254	65.92	-0.0712584	399.795	181.518	0.454028	439.073	5.89055e-5	0.0186607	1.86609e-3	0.0819343	8236.78
4.16999e-5	1.49162e-3	27956.1	779.059	66.18	-0.0637420	306.690	-173.259	-0.564931	352.246	1.03843e-4	0.0345419	3.45421e-3	0.121673	12231.6
3.07538e-4	-8.84161e-4	-347830	785.178	66.37	-0.0377820	215.099	113.007	0.525373	242.978	1.20555e-4	0.0422725	4.22728e-3	0.102713	10325.5
1.71987e-4	-8.93635e-4	-192458	791.942	66.54	-0.0266980	289.019	-92.3792	-0.319630	303.424	7.39140e-5	0.0248975	2.48977e-3	0.0755450	7594.41
1.19220e-4	9.56549e-4	124635	798.769	66.86	-5.79320e-3	184.177	113.891	0.618377	216.546	1.16542e-4	0.0415905	4.15907e-3	0.0900626	9053.80
3.57363e-4	1.67699e-4	2130980	805.608	67.10	1.73252e-3	339.296	197.352	0.581652	392.517	5.35402e-5	0.0174839	1.74840e-3	0.0686274	6899.04
3.54643e-4	1.37527e-3	257871	812.412	67.30	4.59138e-3	205.853	41.7494	0.202812	210.044	1.51139e-4	0.0533730	5.33734e-3	0.112107	11269.8
5.15568e-4	5.87144e-4	878093	819.227	67.45	0.0210987	316.563	201.967	0.638000	375.504	5.33794e-5	0.0176357	1.76359e-3	0.0662229	6657.32
3.90276e-4	-1.28150e-6	-3.04547e8	826.065	67.73	0.0224351	262.579	172.225	0.655900	314.021	1.01109e-4	0.0344436	3.44438e-3	0.108160	10873.2
4.68639e-4	-5.21544e-8	-8.98560e9	832.855	67.94	0.0250295	250.339	171.176	0.683775	303.267	8.99438e-5	0.0308481	3.08483e-3	0.0935521	9404.67
4.87244e-4	9.08986e-7	5.36030e8	839.720	68.19	0.0300495	238.804	169.765	0.710897	292.997	8.99350e-5	0.0310443	3.10446e-3	0.0909590	9143.98
4.97116e-4	4.47047e-7	1.11200e9	846.569	68.41	0.0271032	226.488	167.743	0.740627	281.841	9.02745e-5	0.0313788	3.13790e-3	0.0884384	8890.58
5.03945e-4	5.36439e-7	9.39427e8	853.411	68.62	0.0302339	213.571	165.299	0.773977	270.068	9.05826e-5	0.0317171	3.17173e-3	0.0856575	8611.02
5.11855e-4	-2.42895e-6	-2.10731e8	860.097	68.88	0.0347206	200.451	162.610	0.811223	258.113	9.07917e-5	0.0320312	3.20314e-3	0.0826769	8311.38
5.27946e-4	-9.68561e-7	-5.45083e8	866.922	69.04	0.0355128	188.185	159.195	0.845948	246.489	9.09013e-5	0.0322984	3.22987e-3	0.0796121	8003.28
5.29173e-4	6.70570e-8	7.89139e9	873.807	69.35	0.0284403	175.784	155.816	0.886407	234.901	9.10746e-5	0.0325970	3.25972e-3	0.0765706	7697.51
4.99756e-4	9.90938e-7	5.04327e8	880.596	69.56	0.0212416	163.351	151.832	0.929487	223.017	9.14004e-5	0.0329548	3.29550e-3	0.0734948	7388.30
4.72279e-4	3.03986e-6	1.55362e8	887.502	69.81	0.0261788	152.184	148.186	0.973731	212.412	9.11746e-5	0.0330928	3.30931e-3	0.0702932	7066.45
4.45751e-4	1.24429e-6	3.58236e8	894.223	70.01	0.0173971	142.557	144.298	1.01221	202.840	9.10140e-5	0.0332280	3.32282e-3	0.0673998	6775.58
4.29362e-4	1.09510e-6	3.92077e8	901.195	70.23	0.0120912	132.052	139.890	1.05936	192.372	9.15928e-5	0.0336485	3.36487e-3	0.0647303	6507.21
4.17143e-4	-7.15239e-7	-5.83222e8	908.022	70.44	0.0254301	121.738	135.145	1.11013	181.891	9.18614e-5	0.0339644	3.39646e-3	0.0617780	6210.42
4.07574e-4	-2.90566e-6	-1.40269e8	914.834	70.67	0.0114173	112.142	130.572	1.16434	172.118	9.18192e-5	0.0341504	3.41507e-3	0.0587791	5908.94
4.06446e-4	-2.02669e-6	-2.00546e8	921.005	70.91	0.0138627	103.784	126.050	1.21455	163.278	9.16511e-5	0.0342687	3.42690e-3	0.0559534	5624.87
3.75733e-4	-7.37613e-7	-5.09391e8	927.785	71.12	3.54454e-3	95.0283	120.940	1.27267	153.808	9.22608e-5	0.0346849	3.46851e-3	0.0533480	5362.95
3.53499e-4	2.40641e-6	1.46899e8	934.616	71.30	8.74011e-3	87.2543	116.004	1.32949	145.156	9.21475e-5	0.0348110	3.48112e-3	0.0505301	5079.67
3.11220e-4	3.61368e-6	8.61225e7	941.488	71.63	-7.63554e-4	79.8128	111.309	1.39462	136.966	9.21696e-5	0.0349872	3.49874e-3	0.0479206	4817.34
2.81662e-4	2.00445e-6	1.40518e8	948.206	71.85	0.0108643	72.6173	106.079	1.46080	128.554	9.26465e-5	0.0353333	3.53336e-3	0.0454223	4566.19
2.51467e-4	-2.45856e-6	-1.02282e8	954.857	72.03	3.23823e-3	65.9126	101.033	1.53284	120.632	9.27032e-5	0.0355017	3.55019e-3	0.0428265	4305.24
2.42939e-4	7.22708e-7	3.36151e8	961.721	72.24	6.98416e-3	59.7148	95.9557	1.60690	113.019	9.28671e-5	0.0357094	3.57096e-3	0.0403585	4057.13
2.11742e-4	3.01006e-6	7.03448e7	968.616	72.47	4.67362e-3	54.3026	91.3615	1.68245	106.281	9.25670e-5	0.0357193	3.57195e-3	0.0379629	3816.30
1.81976e-4	2.95051e-6	6.16760e7	974.756	72.71	-5.45691e-3	49.3612	86.8263	1.75900	99.8766	9.26412e-5	0.0358640	3.58643e-3	0.0358198	3600.86
1.63776e-4	3.39742e-6	4.82061e7	981.738	72.92	-4.63368e-3	44.4065	82.0500	1.84770	93.2959	9.31787e-5	0.0361878	3.61881e-3	0.0337618	3393.97
1.38786e-4	2.49594e-6	5.56048e7	988.567	73.15	3.50071e-3	39.8512	77.2996	1.93971	86.9675	9.33858e-5	0.0363774	3.63777e-3	0.0316365	3180.32
1.21459e-4	1.60193e-6	7.58203e7	995.438	73.42	5.19657e-3	35.5644	72.5753	2.04067	80.8207	9.36704e-5	0.0365930	3.65932e-3	0.0295747	2973.05
1.02837e-4	-1.38584e-6	-7.42055e7	1002.22	73.64	1.30722e-4	31.8276	68.2228	2.14351	75.2817	9.34777e-5	0.0366075	3.66077e-3	0.0275588	2770.39
8.67425e-5	-3.33037e-6	-2.60459e7	1009.05	73.82	1.73991e-3	28.3734	64.0642	2.25790	70.0662	9.35521e-5	0.0367192	3.67194e-3	0.0257277	2586.32
7.06408e-5	-2.70453e-6	-2.61195e7	1015.89	74.01	2.60566e-3	25.1300	59.7576	2.37794	64.8266	9.40807e-5	0.0370063	3.70065e-3	0.0239899	2411.62
5.86887e-5	-8.56786e-7	-6.84987e7	1022.04	74.26	-2.90799e-3	22.5734	56.1426	2.48711	60.5107	9.33179e-5	0.0367681	3.67683e-3	0.0222486	2236.57
5.15231e-5	2.42156e-6	2.12768e7	1028.74	74.51	6.61364e-4	20.1027	52.5291	2.61303	56.2443	9.36734e-5	0.0369719	3.69722e-3	0.0207946	2090.40
4.22509e-5	4.99162e-7	8.46436e7	1035.51	74.73	-4.18204e-3	17.8762	49.0713	2.74506	52.2259	9.37686e-5	0.0370607	3.70609e-3	0.0193553	1945.71
3.10044e-5	-2.84616e-6	-1.08934e7	1042.24	74.91	-8.83799e-4	15.8238	45.7839	2.89335	48.4413	9.38303e-5	0.0371383	3.71386e-3	0.0179903	1808.49
2.17605e-5	4.18727e-6	5196810	1048.93	75.15	2.36078e-4	14.1807	42.9754	3.03055	45.2546	9.31745e-5	0.0369193	3.69195e-3	0.0167077	1679.55
1.97226e-5	3.21858e-6	6127730	1055.77	75.42	2.94469e-3	12.4433	39.7536	3.19477	41.6555	9.44554e-5	0.0374689	3.74691e-3	0.0156079	1568.99
1.49303e-5	-1.19195e-7	-1.25260e8	1062.44	75.58	5.09097e-4	10.9694	36.8751	3.36162	38.4721	9.41484e-5	0.0373802	3.73805e-3	0.0143809	1445.65
6.77729e-6	2.27257e-6	2982220	1069.14	75.87	-4.45125e-3	9.68281	34.2816	3.54046	35.6228	9.38617e-5	0.0373053	3.73056e-3	0.0132892	1335.90
8.17279e-6	4.73836e-6	1724810	1075.90	76.03	3.68163e-3	8.56402	31.7389	3.70607	32.8740	9.40953e-5	0.0374223	3.74226e-3	0.0123022	1236.68
8.52402e-6	2.74187e-6	3108830	1082.64	76.29	-2.49258e-3	7.47026	29.3644	3.93084	30.2997	9.41867e-5	0.0374884	3.74886e-3	0.0113589	1141.85
4.13478e-6	-3.36014e-6	-1230540	1089.27	76.57	-5.25112e-3	6.55082	27.1641	4.14667	27.9428	9.40339e-5	0.0374489	3.74492e-3	0.0104643	1051.92
1.98030e-6	-6.70469e-7	-2953600	1096.13	76.73	-5.27985e-3	5.72855	25.0451	4.37198	25.6919	9.42148e-5	0.0375378	3.75381e-3	9.64419e-3	969.478
1.90900e-6	2.86135e-6	667169	1102.89	77.04	7.78518e-4	4.96861	23.0413	4.63738	23.5710	9.42473e-5	0.0375787	3.75789e-3	8.85766e-3	890.411
5.68578e-6	-3.34552e-6	-1699520	1109.61	77.20	1.09368e-3	4.35784	21.3079	4.88955	21.7490	9.36357e-5	0.0373481	3.73484e-3	8.12283e-3	816.541
1.89207e-6	-3.32298e-6	-569390	1116.30	77.40	1.07109e-3	3.82685	19.6531	5.13558	20.0222	9.37154e-5	0.0373911	3.73914e-3	7.48653e-3	752.576
-1.13359e-7	-7.00387e-7	161852	1123.25	77.63	6.39270e-3	3.37404	18.1801	5.38824	18.4906	9.33630e-5	0.0372632	3.72634e-3	6.89017e-3	692.626
-7.11326e-7	1.31135e-6	-542440	1129.96	77.88	-4.77620e-4	2.92922	16.7086	5.70412	16.9634	9.37003e-5	0.0374084	3.74087e-3	6.34576e-3	637.898
1.57280e-6	3.41247e-6	460897	1136.86	78.16	2.39021e-3	2.54108	15.3373	6.03575	15.5464	9.35479e-5	0.0373571	3.73574e-3	5.80768e-3	583.807
3.57452e-6	2.47376e-6	1444980	1143.65	78.33	2.21539e-3	2.22676	14.1053	6.33447	14.2800	9.31929e-5	0.0372245	3.72247e-3	5.31566e-3	534.346
5.25664e-6	2.90587e-7	1.80897e7	1150.45	78.59	-1.83189e-3	1.95445	13.0257	6.66461	13.1715	9.28618e-5	0.0370984	3.70986e-3	4.88641e-3	491.195
4.76735e-6	-2.47354e-6	-1927340	1157.30	78.73	9.01525e-4	1.71766	12.0684	7.02609	12.1900	9.25210e-5	0.0369653	3.69656e-3	4.50609e-3	452.964
2.66160e-6	-4.05296e-6	-656705	1164.15	79.01	1.51116e-3	1.50017	11.1009	7.39977	11.2018	9.28863e-5	0.0371163	3.71165e-3	4.15769e-3	417.941
3.72400e-7	-2.15325e-6	-172948	1170.87	79.19	3.94530e-3	1.31601	10.1873	7.74110	10.2720	9.29689e-5	0.0371556	3.71558e-3	3.81662e-3	383.654
4.09207e-6	1.34115e-6	3051160	1177.47	79.44	-3.19508e-3	1.17903	9.51106	8.06687	9.58386	9.18063e-5	0.0366952	3.66954e-3	3.51681e-3	353.516
3.88233e-6	-7.37597e-7	-5263480	1184.33	79.63	-1.32765e-3	1.03390	8.78696	8.49886	8.84757	9.24053e-5	0.0369362	3.69365e-3	3.26796e-3	328.500
2.89454e-6	-3.03950e-6	-952310	1191.20	79.89	-3.78731e-3	0.914775	8.07622	8.82864	8.12786	9.25742e-5	0.0370030	3.70032e-3	3.00755e-3	302.322
5.59142e-7	-2.93549e-6	-190477	1197.90	80.19	3.06605e-3	0.800124	7.45162	9.31307	7.49445	9.23554e-5	0.0369220	3.69222e-3	2.76710e-3	278.151
2.79816e-6	1.40066e-6	1997740	1204.57	80.38	2.46850e-4	0.702971	6.85523	9.75180	6.89118	9.23816e-5	0.0369341	3.69343e-3	2.54520e-3	255.844
2.79195e-6	-5.96049e-7	-4684090	1211.38	80.61	4.29683e-4	0.614267	6.31623	10.2826	6.34603	9.22257e-5	0.0368755	3.68757e-3	2.34013e-3	235.230
1.78208e-6	-2.71201e-6	-657107	1218.10	80.79	3.58490e-5	0.540947	5.83446	10.7856	5.85949	9.19509e-5	0.0367669	3.67672e-3	2.15435e-3	216.555
9.47806e-7	3.09195e-6	306540	1224.77	80.98	-2.28906e-5	0.482502	5.42097	11.2351	5.44240	9.15379e-5	0.0366028	3.66031e-3	1.99207e-3	200.242
2.16508e-6	2.29470e-6	943513	1231.61	81.26	-2.09565e-3	0.428730	4.98174	11.6198	5.00016	9.20920e-5	0.0368250	3.68252e-3	1.84131e-3	185.086
2.49112e-6	1.19950e-6	2076790	1238.46	81.47	3.39854e-4	0.375183	4.56274	12.1614	4.57814	9.22405e-5	0.0368856	3.68859e-3	1.68868e-3	169.743
1.75966e-6	-8.56803e-7	-2053750	1244.67	81.68	8.01134e-4	0.334898	4.25751	12.7129	4.27066	9.11573e-5	0.0364542	3.64544e-3	1.55684e-3	156.490
4.73652e-8	-1.31873e-6	-35917.2	1251.39	81.92	1.09793e-3	0.300765	3.94154	13.1050	3.95300	9.15090e-5	0.0365957	3.65959e-3	1.44663e-3	145.411
7.51710e-8	8.71736e-7	86231.3	1257.52	82.12	-1.91796e-3	0.268097	3.67355	13.7023	3.68332	9.11023e-5	0.0364351	3.64353e-3	1.34202e-3	134.896
1.78390e-6	-4.54465e-7	-3925270	1264.18	82.28	-5.09252e-4	0.240928	3.41217	14.1626	3.42066	9.11954e-5	0.0364706	3.64709e-3	1.24754e-3	125.398
1.75257e-6	-1.97452e-6	-887593	1271.05	82.57	3.35300e-4	0.212433	3.14869	14.8221	3.15585	9.14390e-5	0.0365725	3.65728e-3	1.15417e-3	116.013
1.11207e-6	-2.86108e-6	-388687	1277.89	82.81	9.22060e-4	0.189373	2.89446	15.2845	2.90065	9.15418e-5	0.0366127	3.66130e-3	1.06201e-3	106.748
2.56269e-7	-1.81051e-6	-141545	1284.63	83.04	-1.93693e-4	0.169956	2.66698	15.6922	2.67239	9.14164e-5	0.0365626	3.65629e-3	9.77096e-4	98.2123
-3.73378e-8	-1.41562e-6	26375.5	1291.56	83.25	2.38203e-5	0.151764	2.46396	16.2354	2.46862	9.12734e-5	0.0365058	3.65061e-3	9.01192e-4	90.5822
-6.27183e-8	1.36356e-6	-45995.9	1297.72	83.51	-1.60493e-3	0.135502	2.30372	17.0014	2.30770	9.06269e-5	0.0362502	3.62504e-3	8.36545e-4	84.0840
1.09811e-7	2.00429e-6	54787.9	1304.69	83.69	-2.95757e-4	0.123802	2.12852	17.1930	2.13211	9.10140e-5	0.0364039	3.64042e-3	7.76173e-4	78.0149
4.22374e-7	3.09968e-6	136264	1311.41	83.95	-1.54362e-4	0.110017	1.97254	17.9293	1.97561	9.09503e-5	0.0363800	3.63803e-3	7.18726e-4	72.2404
9.09589e-7	5.36476e-7	1695490	1318.31	84.19	5.09419e-5	0.100469	1.82368	18.1516	1.82644	9.09121e-5	0.0363646	3.63648e-3	6.64178e-4	66.7569
8.39985e-7	8.79190e-7	955407	1325.11	84.39	-3.25904e-5	0.0904406	1.69505	18.7422	1.69747	9.07541e-5	0.0363003	3.63005e-3	6.16184e-4	61.9325
1.00819e-6	-2.25000e-6	-448083	1332.01	84.61	-1.78639e-3	0.0801701	1.57282	19.6186	1.57486	9.07202e-5	0.0362847	3.62850e-3	5.71435e-4	57.4345
6.04627e-7	-1.23679e-6	-488867	1338.89	84.78	3.16157e-4	0.0738784	1.46069	19.7716	1.46256	9.06021e-5	0.0362387	3.62390e-3	5.30012e-4	53.2704
3.25670e-7	-3.31540e-6	-98229.4	1345.72	85.07	2.69536e-4	0.0665139	1.34883	20.2789	1.35047	9.08766e-5	0.0363476	3.63479e-3	4.90864e-4	49.3351
-5.68625e-8	-8.49338e-7	66949.2	1352.48	85.33	-4.32722e-5	0.0608784	1.24592	20.4657	1.24741	9.08044e-5	0.0363189	3.63191e-3	4.53045e-4	45.5333
-2.80863e-8	1.68383e-6	-16680.0	1358.70	85.51	-5.17862e-4	0.0543101	1.16230	21.4012	1.16357	9.03622e-5	0.0361432	3.61435e-3	4.20552e-4	42.2674
-3.95511e-8	1.68390e-6	-23487.8	1365.54	85.71	1.18172e-4	0.0492321	1.07521	21.8396	1.07634	9.06223e-5	0.0362489	3.62491e-3	3.90160e-4	39.2124
1.81938e-7	3.27089e-6	55623.3	1372.44	85.96	2.74901e-4	0.0455319	0.997655	21.9111	0.998694	9.04867e-5	0.0361943	3.61946e-3	3.61470e-4	36.3283
4.45053e-7	2.60004e-6	171172	1379.26	86.16	5.36340e-4	0.0422733	0.925658	21.8970	0.926623	9.04471e-5	0.0361746	3.61748e-3	3.35202e-4	33.6876
4.11863e-7	9.68625e-7	425204	1386.11	86.42	-1.86502e-4	0.0385805	0.858165	22.2435	0.859032	9.05157e-5	0.0362070	3.62073e-3	3.11030e-4	31.2578
3.41820e-7	-2.36180e-6	-144728	1392.83	86.63	-3.81219e-4	0.0353772	0.792367	22.3977	0.793156	9.05841e-5	0.0362321	3.62323e-3	2.87377e-4	28.8801
2.94357e-8	1.62424e-6	18122.8	1399.42	86.84	-9.18376e-5	0.0318634	0.731790	22.9664	0.732483	9.05678e-5	0.0362264	3.62266e-3	2.65352e-4	26.6663
2.07998e-7	2.69705e-6	77120.5	1406.30	87.09	-2.43562e-5	0.0296458	0.677142	22.8411	0.677790	9.04298e-5	0.0361701	3.61704e-3	2.45158e-4	24.6362
2.53769e-7	-1.77337e-6	-143099	1413.13	87.36	-3.23988e-4	0.0264157	0.630907	23.8838	0.631460	9.01746e-5	0.0360717	3.60719e-3	2.27778e-4	22.8896
1.81060e-7	-7.07801e-7	-255806	1419.94	87.53	2.86152e-4	0.0252255	0.589469	23.3680	0.590008	8.99348e-5	0.0359730	3.59732e-3	2.12244e-4	21.3278
9.13942e-8	-1.73598e-6	-52647.1	1426.80	87.71	-1.17375e-4	0.0233435	0.548295	23.4881	0.548792	9.02048e-5	0.0360810	3.60813e-3	1.98010e-4	19.8970
-5.34531e-8	-6.18351e-7	86444.6	1432.95	87.97	2.23926e-4	0.0220046	0.515695	23.4358	0.516164	8.97624e-5	0.0359016	3.59018e-3	1.85311e-4	18.6205
3.78967e-8	2.63764e-6	14367.6	1439.66	88.21	-1.96714e-4	0.0201379	0.479248	23.7983	0.479671	9.02004e-5	0.0360813	3.60815e-3	1.73071e-4	17.3903
5.45022e-8	1.33360e-6	40868.6	1446.42	88.40	-3.21166e-4	0.0191060	0.448180	23.4576	0.448588	8.99138e-5	0.0359633	3.59635e-3	1.61327e-4	16.2096
-3.10022e-8	-6.03519e-7	51369.0	1452.97	88.62	-3.74190e-5	0.0178884	0.420272	23.4941	0.420652	8.98261e-5	0.0359312	3.59314e-3	1.51145e-4	15.1862
-1.09655e-7	2.16090e-7	-507448	1459.93	88.93	-5.70085e-5	0.0163444	0.390105	23.8678	0.390447	9.01826e-5	0.0360764	3.60766e-3	1.40859e-4	14.1524
-8.97021e-8	1.54977e-6	-57881.1	1466.76	89.10	3.94396e-5	0.0154081	0.361802	23.4813	0.362130	9.00997e-5	0.0360403	3.60405e-3	1.30513e-4	13.1123
-4.40481e-8	2.42886e-6	-18135.3	1473.63	89.33	-7.47527e-5	0.0142533	0.336210	23.5882	0.336512	9.01142e-5	0.0360446	3.60449e-3	1.21294e-4	12.1858
5.27934e-8	1.31880e-6	40031.5	1480.47	89.55	-5.59696e-5	0.0135567	0.313932	23.1570	0.314225	8.99286e-5	0.0359721	3.59724e-3	1.13033e-4	11.3553
2.89975e-8	9.76032e-7	29709.6	1487.25	89.81	-1.40161e-5	0.0127674	0.294976	23.1038	0.295252	8.97325e-5	0.0358927	3.58929e-3	1.05974e-4	10.6458
7.88417e-8	-3.12905e-7	-251967	1494.13	90.04	6.56693e-5	0.0118718	0.275009	23.1649	0.275265	8.99524e-5	0.0359781	3.59784e-3	9.90354e-5	9.94847
-1.25404e-8	-5.29080e-7	23702.3	1500.90	90.27	-1.60367e-5	0.0112711	0.257094	22.8101	0.257341	8.98122e-5	0.0359306	3.59309e-3	9.24642e-5	9.28793
-9.50422e-8	-1.25925e-6	75475.2	1507.79	90.50	2.77049e-5	0.0108699	0.243948	22.4425	0.244190	8.92734e-5	0.0357118	3.57120e-3	8.72047e-5	8.75923
-9.73510e-8	-8.64255e-7	112642	1514.63	90.63	2.60543e-5	0.0101459	0.227924	22.4647	0.228149	8.98267e-5	0.0359297	3.59300e-3	8.19735e-5	8.23354
-8.89733e-8	1.37838e-6	-64549.0	1521.35	90.90	-9.03718e-5	9.33504e-3	0.211929	22.7025	0.212135	8.99775e-5	0.0359912	3.59915e-3	7.63498e-5	7.66858
-8.89505e-8	1.69873e-6	-52363.0	1528.22	91.15	3.00054e-5	8.99435e-3	0.198093	22.0242	0.198297	8.97820e-5	0.0359122	3.59125e-3	7.12130e-5	7.15213
-1.70769e-8	7.82385e-7	-21826.8	1535.10	91.40	-1.12556e-5	8.51538e-3	0.184465	21.6626	0.184662	8.99301e-5	0.0359750	3.59753e-3	6.64321e-5	6.67162
-4.00855e-9	-9.98385e-7	4015.03	1541.85	91.57	1.52256e-5	7.88547e-3	0.172189	21.8363	0.172370	8.97666e-5	0.0359065	3.59067e-3	6.18919e-5	6.21562
-3.55389e-8	-1.60209e-6	22182.9	1548.72	91.94	1.21169e-4	7.45121e-3	0.160237	21.5048	0.160410	8.98862e-5	0.0359589	3.59591e-3	5.76816e-5	5.79254
-2.97652e-8	-1.47518e-6	20177.3	1555.59	92.02	-4.60563e-5	7.17552e-3	0.149667	20.8580	0.149839	8.97189e-5	0.0358863	3.58866e-3	5.37716e-5	5.39950
-6.96980e-8	-1.04303e-6	66822.9	1562.36	92.23	2.69982e-5	6.85789e-3	0.140630	20.5062	0.140797	8.96264e-5	0.0358483	3.58485e-3	5.04732e-5	5.06807
-1.11247e-7	1.93713e-7	-574291	1569.19	92.49	-1.19381e-4	6.46081e-3	0.131960	20.4247	0.132118	8.96364e-5	0.0358537	3.58539e-3	4.73692e-5	4.75637
-9.05311e-8	1.71367e-6	-52828.9	1575.99	92.78	3.07169e-5	6.16829e-3	0.123236	19.9789	0.123390	8.97685e-5	0.0359077	3.59079e-3	4.43065e-5	4.44866
-8.35343e-8	1.93705e-6	-43124.5	1582.81	92.92	6.42843e-5	5.89014e-3	0.116309	19.7465	0.116458	8.94655e-5	0.0357839	3.57842e-3	4.16734e-5	4.18423
-6.19628e-8	-7.44948e-9	8317730	1589.73	93.15	1.15905e-4	5.63589e-3	0.109866	19.4940	0.110011	8.94031e-5	0.0357558	3.57560e-3	3.93352e-5	3.94944
-2.24124e-8	-1.15494e-6	19405.7	1596.55	93.45	-9.00968e-5	5.26400e-3	0.102475	19.4671	0.102610	8.97865e-5	0.0359172	3.59175e-3	3.68546e-5	3.70058
-5.02475e-8	-1.62422e-6	30936.4	1603.32	93.65	8.83561e-5	4.97673e-3	0.0951896	19.1269	0.0953197	8.98443e-5	0.0359372	3.59375e-3	3.42552e-5	3.43967
-8.95416e-8	-1.06541e-6	84044.4	1610.06	93.81	8.65680e-5	4.88469e-3	0.0893141	18.2845	0.0894476	8.95729e-5	0.0358280	3.58282e-3	3.20472e-5	3.21770
-7.71085e-8	1.08028e-6	-71378.6	1616.84	94.10	3.09730e-5	4.64059e-3	0.0841288	18.1289	0.0842567	8.95152e-5	0.0358038	3.58040e-3	3.01671e-5	3.02916
-6.50562e-8	5.28955e-7	-122990	1623.70	94.32	1.32861e-4	4.42005e-3	0.0790911	17.8937	0.0792145	8.95590e-5	0.0358210	3.58212e-3	2.83754e-5	2.84950
-5.28490e-8	-5.21582e-8	1013240	1630.39	94.58	1.07134e-4	4.18458e-3	0.0741504	17.7199	0.0742684	8.96223e-5	0.0358514	3.58516e-3	2.66263e-5	2.67423
-5.76481e-8	-7.89756e-7	72994.8	1637.20	94.77	1.03605e-4	4.00324e-3	0.0695593	17.3758	0.0696744	8.95151e-5	0.0358056	3.58058e-3	2.49474e-5	2.50593
-9.73050e-8	2.51117e-6	-38749.0	1643.81	95.01	1.33416e-4	3.77236e-3	0.0655152	17.3672	0.0656237	8.94696e-5	0.0357921	3.57923e-3	2.34881e-5	2.35997
-8.75821e-8	8.41969e-7	-104021	1650.76	95.26	1.38696e-4	3.65872e-3	0.0613097	16.7571	0.0614188	8.95919e-5	0.0358388	3.58390e-3	2.20117e-5	2.21192
-8.50579e-8	7.45077e-7	-114160	1657.58	95.46	1.77874e-4	3.48258e-3	0.0576118	16.5428	0.0577170	8.95756e-5	0.0358310	3.58312e-3	2.06806e-5	2.07879
-9.21438e-8	-5.88602e-7	156547	1664.35	95.66	1.23702e-4	3.38882e-3	0.0547011	16.1416	0.0548059	8.91775e-5	0.0356711	3.56713e-3	1.95499e-5	1.96553
-7.49243e-8	-2.83124e-7	264634	1671.21	95.92	1.29181e-4	3.23777e-3	0.0515193	15.9120	0.0516210	8.94511e-5	0.0357804	3.57806e-3	1.84702e-5	1.85772
-9.22896e-8	-1.84768e-6	49948.8	1677.98	96.12	1.93764e-4	3.07379e-3	0.0483750	15.7379	0.0484725	8.96052e-5	0.0358406	3.58408e-3	1.73728e-5	1.74830
-9.24434e-8	7.45108e-7	-124067	1684.84	96.44	1.44639e-4	2.89530e-3	0.0455539	15.7337	0.0456458	8.94613e-5	0.0357867	3.57870e-3	1.63351e-5	1.64505
-9.66104e-8	1.72855e-6	-55891.1	1691.63	96.55	1.71941e-4	2.75236e-3	0.0432521	15.7145	0.0433396	8.91822e-5	0.0356728	3.56731e-3	1.54605e-5	1.55807
-7.99717e-8	-1.47521e-6	54210.4	1698.27	96.86	1.12338e-4	2.68311e-3	0.0410885	15.3138	0.0411760	8.91257e-5	0.0356499	3.56501e-3	1.46792e-5	1.48014
-9.28584e-8	-1.92960e-6	48123.2	1705.09	97.04	1.71267e-4	2.59644e-3	0.0386504	14.8859	0.0387376	8.95040e-5	0.0357994	3.57996e-3	1.38678e-5	1.39942
-1.03586e-7	1.34109e-7	-772404	1711.88	97.24	1.99683e-4	2.49663e-3	0.0363509	14.5600	0.0364366	8.94785e-5	0.0357906	3.57909e-3	1.30409e-5	1.31729
-8.85071e-8	-4.39558e-7	201355	1718.77	97.45	2.24277e-4	2.36076e-3	0.0342958	14.5274	0.0343769	8.94161e-5	0.0357642	3.57645e-3	1.22946e-5	1.24361
-8.67554e-8	2.33954e-6	-37082.3	1725.53	97.79	1.77443e-4	2.29666e-3	0.0324995	14.1508	0.0325806	8.92516e-5	0.0357012	3.57014e-3	1.16316e-5	1.17784
-8.77812e-8	1.63178e-6	-53794.6	1732.26	97.97	2.16631e-4	2.17705e-3	0.0305333	14.0250	0.0306108	8.95861e-5	0.0358365	3.58368e-3	1.09698e-5	1.11284
-4.08137e-8	-1.00581e-6	40578.1	1739.11	98.20	2.20615e-4	2.02788e-3	0.0288168	14.2103	0.0288881	8.93953e-5	0.0357570	3.57572e-3	1.03295e-5	1.05030
-6.71581e-8	-8.71734e-7	77039.7	1746.04	98.41	1.82688e-4	1.94978e-3	0.0270863	13.8920	0.0271564	8.94970e-5	0.0357992	3.57994e-3	9.72178e-6	0.990664
-8.19724e-8	-1.70618e-6	48044.4	1752.86	98.69	1.98683e-4	1.89075e-3	0.0256447	13.5633	0.0257143	8.92804e-5	0.0357118	3.57120e-3	9.18303e-6	0.937763
-6.52821e-8	-1.66144e-6	39292.4	1759.72	98.81	2.36301e-4	1.80993e-3	0.0242599	13.4038	0.0243273	8.93718e-5	0.0357476	3.57479e-3	8.69643e-6	0.890483
-7.28091e-8	-4.47018e-8	1628770	1766.53	99.11	2.27654e-4	1.71608e-3	0.0230297	13.4199	0.0230935	8.92186e-5	0.0356860	3.56862e-3	8.24115e-6	0.846513
-6.50420e-8	1.46050e-6	-44534.1	1773.30	99.37	2.28721e-4	1.64392e-3	0.0217575	13.2351	0.0218195	8.93196e-5	0.0357320	3.57323e-3	7.79656e-6	0.803656
-6.43958e-8	7.97208e-7	-80776.6	1780.16	99.52	2.25045e-4	1.56430e-3	0.0204899	13.0984	0.0205495	8.94053e-5	0.0357617	3.57620e-3	7.34887e-6	0.760797
-6.89885e-8	8.56872e-7	-80512.0	1787.04	99.79	2.26525e-4	1.49254e-3	0.0193312	12.9519	0.0193887	8.94343e-5	0.0357759	3.57761e-3	6.93648e-6	0.721503
-5.33539e-8	-1.25916e-6	42372.6	1793.88	99.98	2.50882e-4	1.39796e-3	0.0182629	13.0639	0.0183163	8.93477e-5	0.0357391	3.57394e-3	6.54608e-6	0.684821
-5.24484e-8	-1.33360e-6	39328.5	1800.63	100.21	2.19809e-4	1.35213e-3	0.0172569	12.7628	0.0173098	8.93195e-5	0.0357260	3.57262e-3	6.18411e-6	0.650537
-5.03536e-8	-2.30228e-6	21871.2	1807.55	100.50	2.62900e-4	1.28525e-3	0.0163016	12.6836	0.0163522	8.94308e-5	0.0357728	3.57730e-3	5.84964e-6	0.619514
-7.05212e-8	-1.39335e-6	50612.8	1814.39	100.72	2.52945e-4	1.22816e-3	0.0156527	12.7448	0.0157008	8.88363e-5	0.0355365	3.55367e-3	5.57950e-6	0.594213
-3.20636e-8	-9.31226e-7	34431.6	1821.20	100.83	2.84278e-4	1.17637e-3	0.0147825	12.5662	0.0148292	8.93896e-5	0.0357519	3.57521e-3	5.30172e-6	0.569160
-5.10549e-8	-3.72517e-7	137054	1828.02	101.12	2.75432e-4	1.12105e-3	0.0140716	12.5522	0.0141162	8.91243e-5	0.0356483	3.56485e-3	5.03219e-6	0.544545
-6.95630e-8	-1.19209e-7	583539	1834.80	101.34	3.15872e-4	1.07288e-3	0.0132702	12.3687	0.0133135	8.93798e-5	0.0357515	3.57518e-3	4.75978e-6	0.520247
-4.98734e-8	-7.45066e-9	6693820	1841.69	101.57	2.56341e-4	9.89103e-4	0.0125475	12.6858	0.0125864	8.93237e-5	0.0357297	3.57300e-3	4.49711e-6	0.497506
-6.67656e-8	-1.78810e-6	37338.9	1848.61	101.79	2.69892e-4	9.54295e-4	0.0119275	12.4987	0.0119656	8.89528e-5	0.0355800	3.55803e-3	4.25736e-6	0.475977
-5.08902e-8	-5.88594e-7	86460.6	1855.36	102.04	3.06894e-4	9.10609e-4	0.0113005	12.4099	0.0113372	8.90567e-5	0.0356223	3.56225e-3	4.03856e-6	0.457251
-6.50606e-8	-1.20701e-6	53902.4	1862.18	102.29	3.08966e-4	8.58212e-4	0.0107429	12.5178	0.0107771	8.89174e-5	0.0355671	3.55673e-3	3.83310e-6	0.439902
-9.39765e-8	-7.52531e-7	124881	1869.08	102.52	2.87788e-4	8.31853e-4	0.0104217	12.5284	0.0104549	8.83358e-5	0.0353352	3.53354e-3	3.69426e-6	0.427574
-4.85947e-8	-4.99182e-7	97348.6	1875.93	102.71	3.21455e-4	8.07161e-4	9.92551e-3	12.2968	9.95827e-3	8.87857e-5	0.0355135	3.55138e-3	3.53654e-6	0.414951
-6.32696e-8	-1.19210e-7	530740	1882.73	102.94	3.25193e-4	7.50321e-4	9.40296e-3	12.5319	9.43285e-3	8.88931e-5	0.0355572	3.55574e-3	3.35406e-6	0.400728
-5.23174e-8	1.43054e-6	-36571.8	1889.59	103.21	3.42041e-4	7.12636e-4	8.87535e-3	12.4542	8.90391e-3	8.88840e-5	0.0355541	3.55543e-3	3.16570e-6	0.385775
-5.81190e-8	1.63917e-7	-354564	1896.31	103.45	3.12666e-4	6.76799e-4	8.45445e-3	12.4918	8.48149e-3	8.86450e-5	0.0354586	3.54589e-3	3.00742e-6	0.373251
-5.61646e-8	-1.38575e-6	40530.2	1903.21	103.64	3.25458e-4	6.38337e-4	8.02875e-3	12.5776	8.05408e-3	8.86152e-5	0.0354443	3.54445e-3	2.85471e-6	0.361811
-6.25018e-8	1.93721e-7	-322639	1910.05	103.88	3.35628e-4	5.95641e-4	7.64368e-3	12.8327	7.66685e-3	8.85793e-5	0.0354325	3.54328e-3	2.71656e-6	0.351896
-5.86350e-8	2.53328e-7	-231458	1916.85	104.13	3.37070e-4	5.32031e-4	7.26361e-3	13.6526	7.28307e-3	8.86098e-5	0.0354449	3.54451e-3	2.58147e-6	0.343131
-5.48455e-8	-5.73731e-7	95594.4	1923.67	104.32	3.26668e-4	5.17042e-4	6.94281e-3	13.4279	6.96203e-3	8.84063e-5	0.0353647	3.53649e-3	2.46210e-6	0.334189
-5.19772e-8	-4.47060e-7	116264	1930.59	104.57	3.40324e-4	5.05976e-4	6.60257e-3	13.0492	6.62193e-3	8.84477e-5	0.0353810	3.53812e-3	2.34290e-6	0.325781
-7.01437e-8	1.67631e-6	-41844.1	1937.37	104.72	3.58742e-4	4.72251e-4	6.33117e-3	13.4064	6.34876e-3	8.82865e-5	0.0353128	3.53131e-3	2.24193e-6	0.319145
-4.93236e-8	-2.98027e-8	1655010	1944.25	105.02	3.58424e-4	4.20782e-4	6.02763e-3	14.3248	6.04230e-3	8.84351e-5	0.0353742	3.53744e-3	2.13741e-6	0.313515
-5.49234e-8	-3.87448e-7	141757	1951.10	105.23	3.51636e-4	4.23268e-4	5.72789e-3	13.5325	5.74350e-3	8.82991e-5	0.0353210	3.53212e-3	2.02866e-6	0.305793
-4.06870e-8	-2.30947e-7	176175	1957.84	105.45	3.63138e-4	3.80505e-4	5.47208e-3	14.3811	5.48529e-3	8.82767e-5	0.0353071	3.53074e-3	1.93670e-6	0.300894
-5.02765e-8	-6.40787e-7	78460.7	1964.74	105.71	3.89696e-4	3.47508e-4	5.19965e-3	14.9627	5.21125e-3	8.83092e-5	0.0353256	3.53258e-3	1.84090e-6	0.295784
-6.51428e-8	-9.08967e-7	71666.9	1971.57	105.91	3.99757e-4	3.20824e-4	4.95966e-3	15.4592	4.97003e-3	8.82699e-5	0.0353076	3.53078e-3	1.75480e-6	0.291158
-2.78079e-8	9.76036e-7	-28490.7	1978.45	106.18	3.76894e-4	2.65983e-4	4.73742e-3	17.8110	4.74488e-3	8.82114e-5	0.0352847	3.52849e-3	1.67422e-6	0.287846
-2.29662e-8	-9.23885e-7	24858.2	1985.28	106.36	3.95539e-4	2.99712e-4	4.51464e-3	15.0633	4.52458e-3	8.80856e-5	0.0352346	3.52348e-3	1.59422e-6	0.281917
-5.89692e-8	-2.98038e-8	1978580	1992.02	106.57	4.10687e-4	2.54540e-4	4.34737e-3	17.0793	4.35482e-3	8.80708e-5	0.0352298	3.52301e-3	1.53419e-6	0.279889
-6.32188e-8	-7.45092e-9	8484700	1998.94	106.83	3.84288e-4	2.87706e-4	4.14606e-3	14.4107	4.15603e-3	8.79811e-5	0.0351939	3.51942e-3	1.46267e-6	0.274757
-3.91894e-8	7.82308e-7	-50094.6	2005.14	107.06	3.96398e-4	2.37322e-4	3.99042e-3	16.8144	3.99747e-3	8.80907e-5	0.0352359	3.52361e-3	1.40855e-6	0.273719
-2.66633e-8	1.02073e-6	-26121.9	2011.92	107.28	3.95255e-4	2.04230e-4	3.77726e-3	18.4951	3.78278e-3	8.82462e-5	0.0352981	3.52983e-3	1.33525e-6	0.271394
-1.15909e-8	-1.31869e-6	8789.65	2018.18	107.48	4.27283e-4	1.90910e-4	3.62759e-3	19.0016	3.63261e-3	8.79822e-5	0.0351911	3.51913e-3	1.27836e-6	0.268418
-3.28750e-8	-8.79196e-7	37392.2	2024.93	107.70	4.11519e-4	1.80370e-4	3.46863e-3	19.2306	3.47332e-3	8.79849e-5	0.0351949	3.51951e-3	1.22243e-6	0.266118
-4.39562e-8	-2.98022e-7	147493	2031.66	107.94	4.22135e-4	1.63437e-4	3.29825e-3	20.1806	3.30230e-3	8.80653e-5	0.0352258	3.52260e-3	1.16326e-6	0.264169
-3.65575e-8	-6.48191e-7	56399.3	2038.60	108.14	4.18780e-4	1.32390e-4	3.18457e-3	24.0544	3.18733e-3	8.79246e-5	0.0351692	3.51694e-3	1.12096e-6	0.262986
-3.26181e-8	1.09523e-6	-29782.0	2045.36	108.37	4.10819e-4	1.24110e-4	3.02398e-3	24.3653	3.02652e-3	8.79809e-5	0.0351920	3.51922e-3	1.06509e-6	0.261040
-2.72827e-8	-1.01324e-6	26926.1	2052.30	108.61	4.32551e-4	9.19889e-5	2.89638e-3	31.4862	2.89784e-3	8.79516e-5	0.0351792	3.51795e-3	1.01944e-6	0.260179
-3.04571e-8	-1.04312e-7	291980	2059.09	108.84	4.50034e-4	8.26246e-5	2.77972e-3	33.6427	2.78095e-3	8.78611e-5	0.0351456	3.51458e-3	9.77380e-7	0.258625
-1.83817e-8	-1.04312e-7	176219	2065.85	109.07	4.39180e-4	9.06182e-5	2.62174e-3	28.9317	2.62331e-3	8.79335e-5	0.0351743	3.51746e-3	9.22731e-7	0.256505
-1.85016e-8	-8.64338e-7	21405.5	2072.52	109.30	4.42805e-4	7.65791e-5	2.49421e-3	32.5704	2.49539e-3	8.79497e-5	0.0351826	3.51828e-3	8.77941e-7	0.255424
-9.92690e-9	2.98032e-7	-33308.2	2079.36	109.49	4.53846e-4	7.25532e-5	2.43755e-3	33.5967	2.43863e-3	8.76190e-5	0.0350484	3.50486e-3	8.54699e-7	0.253913
-3.35083e-8	-4.99212e-7	67122.3	2086.17	109.77	4.62636e-4	3.43703e-5	2.31153e-3	67.2536	2.31178e-3	8.79665e-5	0.0351880	3.51882e-3	8.13469e-7	0.254726
-4.17984e-8	9.46181e-7	-44175.9	2093.00	109.95	4.40983e-4	2.46036e-5	2.20961e-3	89.8081	2.20974e-3	8.78860e-5	0.0351527	3.51529e-3	7.76783e-7	0.253686
-2.02044e-8	6.92859e-7	-29160.9	2099.80	110.17	4.45284e-4	1.95124e-5	2.13291e-3	109.310	2.13300e-3	8.77849e-5	0.0351115	3.51117e-3	7.48927e-7	0.252745

