Filename	LLM_EP0904_15%01_Oscillatory temperature sweep_Flow
Instrument name	5333-0626
Operator	liming
rundate	14/05/2025
Sample name	LLM_EP0904_15%01_Oscillatory temperature sweep_Flow
Geometry name	8.0mm parallel plate, UPP Stainless steel  - 119113 new 30 11 22
Procedure name	Sample
	Temperature ramp
	Temperature ramp
	Temperature ramp
	Temperature ramp
	Flow sweep
	Flow sweep
	Flow sweep
	Flow sweep
	Flow sweep
	Flow sweep
	Axial
	Sample
proceduresegments	Temperature ramp#Temperature ramp#Temperature ramp#Temperature ramp#Flow sweep#Flow sweep#Flow sweep#Flow sweep#Flow sweep#Flow sweep#Axial
[step]
Temperature ramp - 1
Storage modulus	Loss modulus	Tan(delta)	Angular frequency	Oscillation torque	Step time	Temperature	Raw phase	Oscillation displacement
MPa	MPa		rad/s	µN.m	s	°C	°	rad
1.01886e-3	1.91667e-3	1.88118	10.0001	0.215354	6.22423	149.77	161.808	8.72354e-5
1.04494e-3	2.05066e-3	1.96247	10.0001	0.215800	13.0716	149.37	160.550	8.71525e-5
1.16664e-3	2.04721e-3	1.75480	10.0001	0.211935	19.9114	149.07	160.195	8.72318e-5
1.26013e-3	2.17091e-3	1.72277	10.0001	0.209911	26.7593	148.92	158.779	8.70363e-5
1.41860e-3	2.31070e-3	1.62887	10.0001	0.206184	33.6924	148.60	156.958	8.68541e-5
1.50005e-3	2.40085e-3	1.60051	10.0001	0.205468	40.3869	148.40	155.837	8.71212e-5
1.63759e-3	2.47158e-3	1.50927	10.0001	0.201682	47.2554	148.14	154.635	8.69284e-5
1.77687e-3	2.59936e-3	1.46288	10.0001	0.199275	54.0164	148.02	152.876	8.69214e-5
1.80760e-3	2.68172e-3	1.48358	10.0001	0.200457	60.9798	147.78	152.000	8.72706e-5
1.94661e-3	2.78715e-3	1.43180	10.0001	0.197214	67.7311	147.57	150.390	8.69399e-5
2.06135e-3	2.79333e-3	1.35509	10.0001	0.194497	74.4957	147.30	149.750	8.72320e-5
2.07993e-3	2.95472e-3	1.42059	10.0001	0.196415	81.4079	147.13	148.229	8.70371e-5
2.27450e-3	2.88310e-3	1.26758	10.0001	0.189590	88.1899	146.85	147.795	8.71644e-5
2.27206e-3	3.15468e-3	1.38847	10.0001	0.194350	95.0399	146.56	145.437	8.69188e-5
2.43498e-3	3.14277e-3	1.29068	10.0001	0.189992	101.844	146.39	144.560	8.71691e-5
2.62001e-3	3.32817e-3	1.27029	10.0001	0.187494	108.638	146.12	141.813	8.66151e-5
2.63453e-3	3.41068e-3	1.29461	10.0001	0.190510	115.557	145.97	141.032	8.73576e-5
2.62643e-3	3.51871e-3	1.33973	10.0001	0.193075	122.350	145.70	140.209	8.73292e-5
2.58614e-3	3.49912e-3	1.35303	10.0001	0.194361	129.280	145.55	140.632	8.76147e-5
2.84364e-3	3.69375e-3	1.29895	10.0001	0.189391	136.082	145.26	137.334	8.64177e-5
2.88693e-3	3.70254e-3	1.28252	10.0001	0.190731	142.803	145.05	136.953	8.74420e-5
2.98275e-3	3.77641e-3	1.26608	10.0001	0.189500	149.654	144.82	135.692	8.71722e-5
3.10624e-3	3.80911e-3	1.22628	10.0001	0.187296	156.460	144.63	134.512	8.71963e-5
3.11038e-3	3.98049e-3	1.27974	10.0001	0.191349	163.349	144.35	133.226	8.71162e-5
3.10378e-3	4.09995e-3	1.32095	10.0001	0.195035	170.166	144.17	132.422	8.73194e-5
3.42981e-3	4.08623e-3	1.19139	10.0001	0.185864	176.979	143.94	129.932	8.67271e-5
3.35711e-3	4.28739e-3	1.27711	10.0001	0.193709	183.894	143.74	129.180	8.70988e-5
3.47448e-3	4.33313e-3	1.24713	10.0001	0.192484	190.642	143.45	127.929	8.71370e-5
3.62573e-3	4.41090e-3	1.21655	10.0001	0.191253	196.982	143.24	126.176	8.70399e-5
3.66342e-3	4.64317e-3	1.26744	10.0001	0.196908	203.758	143.05	124.472	8.69451e-5
3.68660e-3	4.62963e-3	1.25580	10.0001	0.197372	210.613	142.85	124.346	8.75229e-5
3.84384e-3	4.61598e-3	1.20088	10.0001	0.193062	217.417	142.62	123.084	8.71485e-5
3.88058e-3	4.77985e-3	1.23174	10.0001	0.197114	224.325	142.26	121.861	8.71038e-5
4.02818e-3	4.99107e-3	1.23904	10.0001	0.200021	231.115	142.09	119.493	8.67487e-5
4.07709e-3	4.89364e-3	1.20028	10.0001	0.198250	237.368	141.91	119.554	8.76483e-5
4.08463e-3	5.17344e-3	1.26656	10.0001	0.205280	244.222	141.67	118.133	8.70153e-5
4.21536e-3	5.27340e-3	1.25100	10.0001	0.206267	251.041	141.45	116.561	8.70120e-5
4.25901e-3	5.45635e-3	1.28113	10.0001	0.211538	257.895	141.29	115.409	8.70845e-5
4.34608e-3	5.40283e-3	1.24315	10.0001	0.209373	264.671	140.96	114.878	8.74333e-5
4.61421e-3	5.45684e-3	1.18261	10.0001	0.205909	271.497	140.68	112.289	8.68262e-5
4.59760e-3	5.76428e-3	1.25376	10.0001	0.216359	278.264	140.54	111.353	8.69353e-5
4.62482e-3	5.86304e-3	1.26773	10.0001	0.220126	285.106	140.33	110.798	8.72916e-5
4.83119e-3	5.98370e-3	1.23856	10.0001	0.220624	291.951	140.06	108.654	8.68760e-5
4.93517e-3	6.14488e-3	1.24512	10.0001	0.225144	298.755	139.84	107.318	8.69870e-5
5.01898e-3	6.27562e-3	1.25038	10.0001	0.228879	305.591	139.64	106.275	8.70641e-5
5.25220e-3	6.23453e-3	1.18703	10.0001	0.225524	312.431	139.34	104.382	8.71351e-5
5.21131e-3	6.57680e-3	1.26203	10.0001	0.236788	319.297	139.20	104.002	8.68779e-5
5.37345e-3	6.67279e-3	1.24181	10.0001	0.239085	326.076	138.92	102.491	8.70010e-5
5.53595e-3	6.83392e-3	1.23446	10.0001	0.243168	332.887	138.76	100.894	8.68950e-5
5.75160e-3	7.00823e-3	1.21848	10.0001	0.247467	339.850	138.47	98.9177	8.67537e-5
5.76079e-3	7.12257e-3	1.23639	10.0001	0.252797	346.553	138.21	98.7084	8.72551e-5
5.81875e-3	7.46268e-3	1.28252	10.0001	0.262957	353.440	137.98	97.8820	8.68095e-5
5.95543e-3	7.49282e-3	1.25815	10.0001	0.264589	360.183	137.81	96.8190	8.71992e-5
6.20748e-3	7.76794e-3	1.25138	10.0001	0.271396	366.962	137.61	94.7363	8.65885e-5
6.34256e-3	7.87659e-3	1.24186	10.0001	0.276342	373.862	137.36	93.6988	8.70752e-5
6.33910e-3	7.93389e-3	1.25158	10.0001	0.279539	380.609	137.17	93.6936	8.74408e-5
6.37156e-3	8.15914e-3	1.28056	10.0001	0.285997	387.485	136.93	93.3643	8.70212e-5
6.72997e-3	8.22601e-3	1.22229	10.0001	0.286792	394.319	136.62	90.8444	8.66937e-5
6.74513e-3	8.49103e-3	1.25884	10.0001	0.297051	400.641	136.47	90.7137	8.69911e-5
6.91187e-3	8.71512e-3	1.26089	10.0001	0.304657	407.464	136.20	89.6030	8.69364e-5
7.14250e-3	8.89750e-3	1.24571	10.0001	0.310661	414.390	136.02	88.1235	8.67820e-5
7.13449e-3	8.99897e-3	1.26133	10.0001	0.316193	421.173	135.78	88.1995	8.73430e-5
7.30160e-3	9.18562e-3	1.25803	10.0001	0.321534	428.097	135.54	87.1924	8.69461e-5
7.54160e-3	9.53717e-3	1.26461	10.0001	0.333267	434.785	135.37	85.8599	8.66762e-5
7.57096e-3	9.91358e-3	1.30942	10.0001	0.346861	441.594	135.10	85.8466	8.67824e-5
7.79843e-3	9.96847e-3	1.27827	10.0001	0.350581	448.430	134.88	84.5693	8.70635e-5
7.96948e-3	0.0100373	1.25947	10.0001	0.354040	455.294	134.63	83.6434	8.71812e-5
8.19998e-3	0.0104392	1.27308	10.0001	0.365736	462.155	134.36	82.6401	8.64152e-5
8.40285e-3	0.0106797	1.27096	10.0001	0.376394	468.865	134.20	81.7321	8.67343e-5
8.58240e-3	0.0109382	1.27450	10.0001	0.385920	475.695	133.96	81.0051	8.66602e-5
8.66394e-3	0.0112714	1.30096	10.0001	0.398827	482.543	133.73	80.8658	8.68864e-5
9.04329e-3	0.0115577	1.27804	10.0001	0.408978	489.481	133.48	79.2603	8.64597e-5
9.08690e-3	0.0117478	1.29283	10.0001	0.418994	496.193	133.29	79.2245	8.71320e-5
9.32070e-3	0.0118644	1.27291	10.0001	0.423850	503.120	133.04	78.2435	8.69838e-5
9.71618e-3	0.0123332	1.26934	10.0001	0.438540	509.949	132.78	76.9223	8.61360e-5
9.67350e-3	0.0123432	1.27598	10.0001	0.445866	516.774	132.53	77.1215	8.75769e-5
9.83148e-3	0.0130700	1.32941	10.0001	0.464181	523.484	132.38	77.1527	8.61053e-5
0.0102864	0.0131881	1.28210	10.0001	0.474987	530.247	132.13	75.3999	8.66757e-5
0.0102692	0.0136196	1.32626	10.0001	0.490946	537.146	131.92	75.9114	8.69479e-5
0.0104922	0.0138463	1.31968	10.0001	0.499879	543.354	131.66	75.2700	8.68418e-5
0.0111728	0.0141028	1.26224	10.0001	0.511458	550.170	131.47	72.9614	8.62281e-5
0.0112836	0.0145573	1.29014	10.0001	0.531448	556.963	131.28	73.0645	8.68496e-5
0.0113923	0.0148147	1.30041	10.0001	0.542485	563.800	131.13	72.9560	8.70591e-5
0.0119136	0.0155099	1.30187	10.0001	0.563632	570.700	130.79	71.9223	8.59100e-5
0.0123032	0.0157476	1.27996	10.0001	0.580691	577.445	130.55	70.9030	8.66566e-5
0.0123085	0.0160557	1.30444	10.0001	0.594522	584.317	130.34	71.2283	8.71947e-5
0.0125333	0.0166632	1.32951	10.0001	0.612801	591.112	130.18	71.1695	8.65604e-5
0.0128141	0.0169483	1.32263	10.0001	0.627804	597.924	129.86	70.6172	8.69040e-5
0.0134864	0.0173194	1.28421	10.0001	0.644338	604.805	129.65	69.0366	8.63941e-5
0.0139447	0.0175353	1.25748	10.0001	0.659486	611.702	129.39	67.9757	8.67096e-5
0.0142581	0.0182388	1.27919	10.0001	0.684005	618.403	129.22	67.8974	8.64130e-5
0.0145428	0.0185657	1.27663	10.0001	0.701500	625.352	128.96	67.4955	8.68109e-5
0.0146340	0.0192326	1.31424	10.0001	0.725990	632.065	128.76	67.9679	8.70205e-5
0.0150462	0.0195840	1.30159	10.0001	0.740335	638.886	128.58	67.2915	8.67210e-5
0.0155677	0.0199357	1.28058	10.0001	0.758251	645.659	128.35	66.3822	8.66628e-5
0.0157793	0.0213578	1.35353	10.0001	0.800961	652.608	128.08	67.3133	8.60491e-5
0.0164439	0.0210843	1.28219	10.0001	0.811171	659.352	127.83	65.5336	8.70786e-5
0.0165222	0.0217836	1.31845	10.0001	0.831972	666.084	127.62	66.0594	8.68056e-5
0.0172064	0.0219960	1.27836	10.0001	0.846889	672.949	127.42	64.7886	8.66257e-5
0.0175417	0.0227670	1.29788	10.0001	0.875984	679.233	127.23	64.8468	8.66161e-5
0.0177579	0.0230648	1.29884	10.0001	0.893498	686.008	126.97	64.6910	8.70929e-5
0.0183170	0.0238845	1.30395	10.0001	0.920081	692.586	126.73	64.3554	8.63622e-5
0.0186052	0.0246851	1.32678	10.0001	0.952605	699.487	126.45	64.5380	8.66539e-5
0.0191725	0.0250534	1.30674	10.0001	0.973928	706.418	126.24	63.8121	8.67594e-5
0.0193420	0.0257930	1.33352	10.0001	0.999619	713.187	126.06	64.1596	8.67451e-5
0.0204831	0.0260109	1.26987	10.0001	1.01982	719.987	125.79	62.3410	8.63655e-5
0.0204778	0.0272968	1.33300	10.0001	1.06308	726.869	125.64	63.4712	8.66608e-5
0.0211688	0.0281020	1.32752	10.0001	1.09628	733.679	125.36	63.0006	8.64417e-5
0.0224019	0.0286529	1.27904	10.0001	1.13053	740.479	125.12	61.5104	8.62528e-5
0.0224476	0.0295014	1.31423	10.0001	1.16704	747.319	124.85	62.1360	8.69821e-5
0.0230626	0.0311964	1.35268	10.0001	1.21657	754.148	124.63	62.5398	8.60549e-5
0.0238598	0.0315887	1.32393	10.0001	1.25136	760.959	124.44	61.6996	8.67472e-5
0.0240680	0.0316853	1.31649	10.0001	1.26643	767.766	124.27	61.4807	8.73401e-5
0.0248100	0.0327518	1.32010	10.0001	1.29789	774.579	124.00	61.2617	8.64154e-5
0.0260898	0.0339461	1.30113	10.0001	1.35164	781.388	123.71	60.4565	8.61451e-5
0.0260871	0.0341192	1.30789	10.0001	1.37701	788.224	123.55	60.5848	8.74277e-5
0.0276573	0.0358295	1.29548	10.0001	1.42611	795.154	123.31	59.8555	8.56041e-5
0.0276806	0.0370691	1.33917	10.0001	1.48605	801.929	123.07	60.6668	8.69168e-5
0.0285356	0.0377736	1.32374	10.0001	1.51728	808.717	122.91	60.1402	8.66341e-5
0.0288653	0.0393511	1.36327	10.0001	1.56796	815.352	122.67	60.7747	8.64791e-5
0.0292072	0.0395374	1.35369	10.0001	1.59440	822.188	122.37	60.5138	8.73088e-5
0.0308811	0.0409533	1.32616	10.0001	1.63987	829.012	122.15	59.5957	8.58881e-5
0.0310545	0.0422865	1.36169	10.0001	1.70206	835.895	122.01	60.2126	8.68694e-5
0.0319813	0.0441019	1.37899	10.0001	1.75955	842.639	121.70	60.3233	8.62123e-5
0.0334215	0.0454519	1.35996	10.0001	1.82644	849.573	121.52	59.6886	8.62731e-5
0.0343749	0.0466753	1.35783	10.0001	1.88591	856.381	121.22	59.4708	8.65522e-5
0.0352572	0.0481544	1.36580	10.0001	1.94498	863.080	121.06	59.4623	8.65192e-5
0.0363516	0.0488350	1.34341	10.0001	1.98975	869.879	120.81	58.8631	8.67385e-5
0.0372923	0.0504592	1.35307	10.0001	2.04912	876.727	120.53	58.8973	8.64921e-5
0.0377880	0.0526396	1.39302	10.0001	2.12510	883.572	120.32	59.5551	8.65606e-5
0.0385331	0.0537316	1.39443	10.0001	2.17497	890.386	120.12	59.4733	8.67195e-5
0.0404643	0.0550734	1.36104	10.0001	2.23887	897.165	119.89	58.6010	8.62990e-5
0.0407269	0.0576075	1.41449	10.0001	2.32755	904.046	119.62	59.5404	8.66118e-5
0.0413250	0.0587925	1.42269	10.0001	2.37983	910.913	119.45	59.6125	8.68474e-5
0.0435290	0.0604131	1.38788	10.0001	2.44593	917.715	119.26	58.7350	8.60655e-5
0.0443305	0.0618878	1.39605	10.0001	2.52276	924.574	119.01	58.7986	8.67149e-5
0.0457016	0.0645686	1.41283	10.0001	2.61262	931.438	118.74	58.9627	8.62232e-5
0.0462503	0.0663191	1.43392	10.0001	2.69398	938.243	118.56	59.2833	8.68443e-5
0.0484380	0.0695933	1.43675	10.0001	2.79584	945.206	118.28	59.1365	8.57712e-5
0.0499456	0.0699439	1.40040	10.0001	2.86802	951.954	118.17	58.3589	8.68169e-5
0.0503844	0.0730351	1.44956	10.0001	2.95916	958.757	117.85	59.1999	8.65538e-5
0.0526374	0.0745997	1.41724	10.0001	3.03777	965.606	117.60	58.4575	8.63150e-5
0.0539738	0.0771900	1.43014	10.0001	3.14421	972.350	117.40	58.5941	8.64632e-5
0.0558052	0.0796923	1.42805	10.0001	3.24599	979.287	117.15	58.4354	8.63190e-5
0.0553713	0.0822291	1.48505	10.0001	3.34481	985.997	116.94	59.4537	8.71216e-5
0.0587263	0.0842680	1.43493	10.0001	3.42380	992.735	116.71	58.3808	8.60535e-5
0.0600456	0.0877024	1.46060	10.0001	3.56640	999.330	116.52	58.7585	8.64684e-5
0.0618011	0.0908160	1.46949	10.0001	3.68741	1006.22	116.36	58.8194	8.63818e-5
0.0635022	0.0923513	1.45430	10.0001	3.77622	1013.07	116.08	58.4704	8.66807e-5
0.0655892	0.0963583	1.46912	10.0001	3.91007	1019.92	115.79	58.6309	8.61729e-5
0.0659232	0.0984873	1.49397	10.0001	4.02776	1026.79	115.56	59.0416	8.72294e-5
0.0668661	0.103061	1.54130	10.0001	4.14273	1033.55	115.37	59.7831	8.63928e-5
0.0719413	0.106096	1.47475	10.0001	4.28536	1040.46	115.11	58.4670	8.56292e-5
0.0725208	0.110462	1.52318	10.0001	4.47655	1047.23	114.87	59.2646	8.66347e-5
0.0750042	0.112489	1.49977	10.0001	4.57357	1053.98	114.71	58.7857	8.64849e-5
0.0766021	0.117130	1.52907	10.0001	4.73654	1060.80	114.52	59.2219	8.64112e-5
0.0777033	0.120718	1.55357	10.0001	4.88039	1067.62	114.18	59.5860	8.67164e-5
0.0809234	0.126075	1.55796	10.0001	5.06132	1074.43	114.04	59.5602	8.60862e-5
0.0862169	0.132498	1.53680	10.0001	5.30770	1081.26	113.81	59.0737	8.54619e-5
0.0859384	0.137415	1.59900	10.0001	5.53620	1088.13	113.50	60.0731	8.68415e-5
0.0911848	0.139950	1.53480	10.0001	5.65751	1094.90	113.32	58.9219	8.61175e-5
0.0950895	0.145080	1.52572	10.0001	5.86520	1101.85	113.08	58.6864	8.59009e-5
0.0976631	0.156498	1.60243	10.0001	6.22898	1108.61	112.82	59.8689	8.56252e-5
0.100707	0.160888	1.59758	10.0001	6.47511	1115.57	112.68	59.7363	8.64548e-5
0.104477	0.166202	1.59079	10.0001	6.68239	1122.28	112.41	59.5642	8.62263e-5
0.108899	0.170202	1.56294	10.0001	6.89177	1129.08	112.21	59.0481	8.63666e-5
0.110087	0.177022	1.60802	10.0001	7.13252	1135.93	111.91	59.7436	8.65657e-5
0.115451	0.182307	1.57909	10.0001	7.34669	1142.77	111.66	59.2112	8.61067e-5
0.120549	0.188705	1.56539	10.0001	7.62386	1149.57	111.48	58.9237	8.60766e-5
0.123392	0.198400	1.60789	10.0001	7.96764	1156.39	111.35	59.5626	8.61158e-5
0.129417	0.207436	1.60285	10.0001	8.31190	1163.21	110.97	59.4153	8.58044e-5
0.131943	0.212540	1.61085	10.0001	8.59758	1170.06	110.80	59.5130	8.67060e-5
0.136103	0.223096	1.63917	10.0001	8.90431	1176.84	110.58	59.9057	8.58915e-5
0.138007	0.229419	1.66237	10.0001	9.21540	1183.70	110.40	60.2355	8.67331e-5
0.149328	0.237186	1.58836	10.0001	9.50159	1190.50	110.11	58.9982	8.54110e-5
0.145862	0.249197	1.70845	10.0001	9.99774	1196.79	109.86	60.8367	8.71483e-5
0.152005	0.257135	1.69162	10.0001	10.2247	1203.60	109.70	60.5456	8.61230e-5
0.153323	0.267378	1.74388	10.0001	10.6181	1210.34	109.47	61.2758	8.66209e-5
0.161198	0.277938	1.72421	10.0001	10.9766	1217.20	109.21	60.9453	8.58807e-5
0.171020	0.282861	1.65397	10.0001	11.3214	1224.05	108.94	59.8594	8.60997e-5
0.176841	0.294315	1.66429	10.0001	11.7693	1230.84	108.74	59.9795	8.61322e-5
0.182819	0.308989	1.69014	10.0001	12.2891	1237.73	108.56	60.3274	8.59641e-5
0.186918	0.319564	1.70965	10.0001	12.7444	1244.52	108.32	60.5880	8.64193e-5
0.194192	0.327703	1.68752	10.0001	13.0987	1251.38	108.10	60.2323	8.63090e-5
0.205287	0.344316	1.67724	10.0001	13.6541	1258.18	107.88	60.0317	8.54544e-5
0.210546	0.362405	1.72126	10.0001	14.3775	1265.04	107.64	60.6478	8.60128e-5
0.209333	0.370888	1.77176	10.0001	14.8124	1271.94	107.37	61.3545	8.71851e-5
0.223361	0.389442	1.74356	10.0001	15.2920	1278.86	107.19	60.9139	8.53681e-5
0.231471	0.399069	1.72406	10.0001	15.9005	1285.78	106.94	60.6120	8.63660e-5
0.246760	0.421997	1.71015	10.0001	16.6156	1292.48	106.68	60.3659	8.51341e-5
0.248506	0.445752	1.79373	10.0001	17.5932	1299.35	106.47	61.5202	8.63046e-5
0.266549	0.459676	1.72455	10.0001	18.1758	1306.11	106.28	60.5184	8.56278e-5
0.265884	0.477921	1.79748	10.0001	18.9659	1312.98	106.10	61.5247	8.67759e-5
0.283371	0.498573	1.75944	10.0001	19.5951	1319.83	105.80	60.9679	8.54916e-5
0.298920	0.531081	1.77666	10.0001	20.7655	1326.75	105.59	61.1717	8.52169e-5
0.305250	0.535989	1.75590	10.0001	21.4474	1333.48	105.34	60.8745	8.69636e-5
0.319305	0.568977	1.78192	10.0001	22.3016	1340.25	105.17	61.2056	8.54562e-5
0.334490	0.590983	1.76682	10.0001	23.3228	1347.00	104.89	60.9745	8.58560e-5
0.341497	0.610203	1.78685	10.0001	24.2035	1353.68	104.66	61.2364	8.65148e-5
0.359392	0.662020	1.84206	10.0001	25.5601	1360.47	104.53	61.9393	8.47634e-5
0.380440	0.676907	1.77928	10.0001	26.7436	1367.28	104.17	61.0805	8.60443e-5
0.391136	0.698549	1.78595	10.0001	27.6791	1374.09	104.03	61.1583	8.63644e-5
0.414388	0.729873	1.76133	10.0001	28.7245	1380.96	103.79	60.7956	8.54816e-5
0.429597	0.759753	1.76852	10.0001	30.0326	1387.23	103.52	60.8793	8.59321e-5
0.449752	0.790960	1.75866	10.0001	31.2743	1393.96	103.35	60.7240	8.58163e-5
0.465443	0.831028	1.78546	10.0001	32.7363	1400.85	103.17	61.0778	8.57936e-5
0.480482	0.859343	1.78850	10.0001	33.9983	1407.75	102.92	61.1068	8.61904e-5
0.508808	0.892563	1.75422	10.0001	35.2653	1414.47	102.70	60.6147	8.56719e-5
0.523837	0.915226	1.74716	10.0001	36.5158	1421.31	102.42	60.5054	8.64243e-5
0.555499	0.979774	1.76377	10.0001	38.3154	1427.91	102.30	60.7162	8.48842e-5
0.568539	1.00698	1.77117	10.0001	40.0687	1434.76	101.97	60.8103	8.64582e-5
0.592206	1.05214	1.77664	10.0001	41.5127	1441.60	101.75	60.8719	8.57809e-5
0.616870	1.09107	1.76872	10.0001	43.1646	1448.60	101.53	60.7502	8.59097e-5
0.660673	1.13302	1.71494	10.0001	44.8597	1455.24	101.32	59.9706	8.53205e-5
0.679977	1.16558	1.71415	10.0001	46.6929	1462.08	101.06	59.9506	8.63070e-5
0.701904	1.22219	1.74125	10.0001	48.5064	1468.94	100.82	60.3283	8.58317e-5
0.734078	1.28443	1.74972	10.0001	50.7265	1475.71	100.58	60.4348	8.55160e-5
0.766291	1.33423	1.74116	10.0001	52.9517	1482.59	100.40	60.3025	8.58126e-5
0.799122	1.38021	1.72716	10.0001	54.9449	1489.36	100.14	60.0924	8.59061e-5
0.852583	1.46005	1.71250	10.0001	57.5619	1496.20	99.91	59.8647	8.48892e-5
0.890670	1.53076	1.71866	10.0001	60.8046	1502.98	99.66	59.9427	8.56015e-5
0.948400	1.58887	1.67532	10.0001	63.3587	1509.89	99.53	59.2909	8.53684e-5
0.967115	1.63806	1.69376	10.0001	65.9393	1516.75	99.23	59.5599	8.64217e-5
1.04173	1.71922	1.65035	10.0001	68.4285	1523.58	99.03	58.8910	8.48637e-5
1.08200	1.80365	1.66696	10.0001	72.2401	1530.35	98.79	59.1346	8.56174e-5
1.14506	1.86564	1.62929	10.0001	75.0777	1537.16	98.58	58.5443	8.54901e-5
1.18089	1.95277	1.65364	10.0001	78.5618	1543.98	98.35	58.9131	8.58108e-5
1.23559	2.04460	1.65476	10.0001	81.9153	1550.57	98.10	58.9202	8.54720e-5
1.29727	2.13979	1.64945	10.0001	85.7429	1557.39	97.95	58.8287	8.54026e-5
1.37269	2.21734	1.61532	10.0001	89.4957	1564.27	97.63	58.2861	8.55363e-5
1.43303	2.33631	1.63033	10.0001	93.8525	1571.02	97.39	58.5124	8.53513e-5
1.48210	2.42079	1.63335	10.0001	97.8673	1577.93	97.27	58.5524	8.59337e-5
1.55741	2.54000	1.63092	10.0001	101.762	1584.70	96.96	58.5043	8.51235e-5
1.65396	2.65745	1.60672	10.0001	106.872	1591.53	96.75	58.1112	8.51003e-5
1.75181	2.76140	1.57631	10.0001	111.952	1598.36	96.51	57.6090	8.53260e-5
1.82090	2.89093	1.58764	10.0001	117.257	1605.13	96.30	57.7854	8.55407e-5
1.91698	3.04677	1.58936	10.0001	122.999	1612.00	96.06	57.8028	8.51702e-5
2.00245	3.16426	1.58020	10.0001	128.597	1618.80	95.83	57.6453	8.56042e-5
2.09615	3.29785	1.57329	10.0001	133.977	1625.61	95.62	57.5230	8.54655e-5
2.18454	3.42700	1.56875	10.0001	139.597	1632.46	95.39	57.4399	8.56210e-5
2.29481	3.61915	1.57710	10.0001	146.272	1639.25	95.20	57.5664	8.50852e-5
2.40354	3.74503	1.55813	10.0001	152.755	1646.15	94.91	57.2444	8.55813e-5
2.53264	3.92215	1.54864	10.0001	159.412	1652.94	94.65	57.0749	8.51293e-5
2.63723	4.07829	1.54643	10.0001	166.639	1659.29	94.46	57.0291	8.55445e-5
2.74962	4.25864	1.54881	10.0001	173.718	1666.03	94.29	57.0598	8.54363e-5
2.86823	4.44028	1.54809	10.0001	181.200	1672.83	94.04	57.0384	8.54645e-5
3.02955	4.66334	1.53928	10.0001	189.423	1679.70	93.80	56.8778	8.49338e-5
3.17678	4.90245	1.54321	10.0001	199.252	1686.47	93.50	56.9329	8.50590e-5
3.33492	5.09141	1.52670	10.0001	208.286	1693.32	93.41	56.6415	8.53367e-5
3.45632	5.30241	1.53412	10.0001	217.191	1700.11	93.18	56.7591	8.55751e-5
3.59683	5.53372	1.53850	10.0001	225.999	1706.99	92.92	56.8232	8.54091e-5
3.76866	5.77104	1.53133	10.0001	235.431	1713.73	92.65	56.6898	8.51976e-5
3.95736	6.02709	1.52301	10.0001	246.068	1720.40	92.42	56.5352	8.51400e-5
4.14577	6.32083	1.52465	10.0001	257.748	1727.28	92.23	56.5506	8.50641e-5
4.31350	6.59365	1.52861	10.0001	269.557	1734.05	92.02	56.6070	8.53563e-5
4.51887	6.88536	1.52369	10.0001	280.969	1741.03	91.77	56.5099	8.51219e-5
4.73529	7.24590	1.53019	10.0001	294.717	1747.86	91.54	56.6066	8.49634e-5
4.95071	7.56003	1.52706	10.0001	308.459	1754.60	91.34	56.5397	8.51966e-5
5.17408	7.95199	1.53689	10.0001	322.843	1761.39	91.09	56.6919	8.49414e-5
5.43987	8.30813	1.52727	10.0001	338.020	1768.22	90.87	56.5125	8.49802e-5
5.66880	8.69473	1.53379	10.0001	353.807	1775.05	90.65	56.6087	8.51119e-5
5.93458	9.12993	1.53843	10.0001	370.285	1781.81	90.38	56.6705	8.49218e-5
6.21309	9.55437	1.53778	10.0001	387.793	1788.64	90.16	56.6427	8.49989e-5
6.52812	10.0436	1.53851	10.0001	406.347	1795.44	89.99	56.6358	8.47434e-5
6.81892	10.5264	1.54370	10.0001	426.494	1802.07	89.72	56.7051	8.49718e-5
7.18788	11.0986	1.54408	10.0001	447.377	1808.90	89.49	56.6891	8.45617e-5
7.52747	11.6246	1.54429	10.0001	470.236	1815.15	89.36	56.6724	8.48734e-5
7.88926	12.2347	1.55080	10.0001	492.943	1821.98	89.05	56.7589	8.46613e-5
8.28219	12.8578	1.55246	10.0001	518.014	1828.87	88.81	56.7630	8.47054e-5
8.68724	13.4890	1.55273	10.0001	543.518	1835.61	88.68	56.7435	8.47375e-5
9.14033	14.2125	1.55492	10.0001	570.448	1842.47	88.38	56.7528	8.44724e-5
9.58469	14.9485	1.55962	10.0001	599.906	1849.32	88.16	56.8037	8.45595e-5
10.0898	15.7354	1.55953	10.0001	630.150	1856.17	87.89	56.7727	8.44091e-5
10.6191	16.5699	1.56038	10.0001	662.790	1863.09	87.76	56.7556	8.43407e-5
11.1519	17.4381	1.56369	10.0001	697.001	1869.79	87.50	56.7783	8.43627e-5
11.7746	18.4007	1.56274	10.0001	732.585	1876.59	87.24	56.7268	8.40486e-5
12.4216	19.3923	1.56117	10.0001	772.363	1883.48	87.03	56.6638	8.40906e-5
13.0698	20.4426	1.56411	10.0001	813.264	1890.28	86.81	56.6739	8.40767e-5
13.7559	21.4651	1.56043	10.0001	855.198	1897.10	86.61	56.5749	8.41790e-5
14.4694	22.5453	1.55814	10.0001	897.763	1903.96	86.29	56.4971	8.41423e-5
15.2247	23.7110	1.55741	10.0001	943.112	1910.71	86.11	56.4421	8.40787e-5
16.0252	24.8755	1.55228	10.0001	990.796	1917.33	85.88	56.3134	8.41518e-5
16.9359	26.2274	1.54863	10.0001	1039.82	1924.15	85.65	56.2026	8.37504e-5
17.8513	27.6032	1.54629	10.0001	1095.60	1930.98	85.47	56.1130	8.38554e-5
18.8335	28.9975	1.53968	10.0001	1152.28	1937.87	85.20	55.9504	8.39135e-5
19.8760	30.4394	1.53146	10.0001	1210.59	1944.67	84.98	55.7579	8.38959e-5
21.0160	32.0536	1.52520	10.0001	1272.07	1951.50	84.76	55.5921	8.36800e-5
22.2260	33.7610	1.51899	10.0001	1339.60	1958.32	84.57	55.4231	8.36244e-5
23.5617	35.5946	1.51070	10.0001	1411.11	1965.15	84.28	55.2130	8.34893e-5
24.9763	37.3994	1.49739	10.0001	1488.34	1972.05	84.14	54.9146	8.36549e-5
26.5135	39.3938	1.48580	10.0001	1566.27	1978.80	83.81	54.6373	8.34594e-5
28.0910	41.4802	1.47664	10.0001	1651.28	1985.71	83.60	54.3985	8.34883e-5
29.8812	43.7114	1.46284	10.0001	1739.97	1992.51	83.39	54.0689	8.33297e-5
31.7825	45.9401	1.44545	10.0001	1836.17	1999.32	83.13	53.6704	8.34612e-5
33.9275	48.5494	1.43098	10.0001	1935.05	2006.22	82.92	53.3077	8.30636e-5
36.0367	51.0204	1.41579	10.0001	2047.23	2012.92	82.71	52.9333	8.34455e-5
38.3076	53.5139	1.39695	10.0001	2155.61	2019.85	82.44	52.4838	8.35234e-5
40.7463	56.1892	1.37900	10.0001	2267.43	2026.55	82.22	52.0389	8.34329e-5
43.3231	59.0460	1.36292	10.0001	2387.03	2033.41	82.02	51.6196	8.33813e-5
46.1195	61.9885	1.34408	10.0001	2513.76	2040.12	81.75	51.1367	8.33811e-5
48.8522	64.7599	1.32563	10.0001	2645.94	2046.34	81.59	50.6611	8.37348e-5
52.0333	67.9088	1.30510	10.0001	2773.42	2053.10	81.38	50.1227	8.33999e-5
55.3904	71.1376	1.28429	10.0001	2918.33	2059.89	81.17	49.5673	8.34518e-5
58.9811	74.4686	1.26258	10.0001	3068.31	2066.72	81.00	48.9802	8.34632e-5
63.7081	78.7250	1.23571	10.0001	3226.82	2073.61	80.64	48.2362	8.25949e-5
67.9138	82.2535	1.21115	10.0001	3427.38	2080.52	80.48	47.5548	8.35067e-5
72.0558	85.8137	1.19093	10.0001	3599.32	2087.31	80.25	46.9628	8.37020e-5
76.4541	89.3695	1.16893	10.0001	3770.27	2094.12	79.98	46.3192	8.37722e-5
81.2182	93.0252	1.14537	10.0001	3946.06	2100.86	79.75	45.6238	8.37625e-5
86.3315	96.7530	1.12072	10.0001	4130.33	2107.69	79.58	44.8849	8.37565e-5
91.7788	100.887	1.09924	10.0001	4322.88	2114.51	79.33	44.2015	8.36379e-5
97.6282	104.923	1.07472	10.0001	4530.75	2121.32	79.12	43.4300	8.37213e-5
103.731	109.155	1.05228	10.0001	4742.98	2128.12	78.81	42.6947	8.37430e-5
109.772	112.905	1.02854	10.0001	4962.94	2134.94	78.70	41.9263	8.41070e-5
116.073	116.851	1.00671	10.0001	5170.41	2141.76	78.49	41.1914	8.41011e-5
123.686	121.301	0.980720	10.0001	5387.46	2148.64	78.11	40.3094	8.37174e-5
131.470	125.870	0.957404	10.0001	5639.48	2155.47	77.96	39.4846	8.38047e-5
139.078	129.813	0.933378	10.0001	5895.09	2162.29	77.74	38.6442	8.42034e-5
147.025	133.934	0.910963	10.0001	6133.24	2169.20	77.52	37.8325	8.42085e-5
155.181	137.660	0.887095	10.0001	6380.31	2175.90	77.32	36.9734	8.44011e-5
163.888	141.799	0.865214	10.0001	6622.07	2182.78	77.03	36.1499	8.42856e-5
172.417	145.682	0.844937	10.0001	6881.23	2189.57	76.84	35.3742	8.45244e-5
181.617	149.464	0.822964	10.0001	7130.55	2196.50	76.60	34.5333	8.45169e-5
191.622	153.281	0.799912	10.0001	7389.91	2203.24	76.37	33.6401	8.44470e-5
201.722	157.287	0.779721	10.0001	7663.76	2209.98	76.13	32.8268	8.45164e-5
211.943	160.809	0.758737	10.0001	7940.96	2216.84	75.96	31.9872	8.46952e-5
221.860	164.029	0.739337	10.0001	8209.53	2223.47	75.74	31.2011	8.49139e-5
232.784	167.124	0.717934	10.0001	8465.82	2230.30	75.48	30.3340	8.48424e-5
243.863	170.635	0.699718	10.0001	8737.79	2237.13	75.21	29.5613	8.48483e-5
255.656	173.632	0.679164	10.0001	9017.87	2243.94	75.05	28.7038	8.48911e-5
267.075	176.311	0.660156	10.0001	9300.98	2250.96	74.86	27.9026	8.50943e-5
278.510	178.834	0.642110	10.0001	9570.05	2257.64	74.55	27.1329	8.51990e-5
290.618	181.508	0.624558	10.0001	9835.37	2264.55	74.31	26.3691	8.51446e-5
302.495	183.573	0.606862	10.0001	10113.6	2271.40	74.11	25.6062	8.53296e-5
315.722	185.816	0.588543	10.0001	10377.0	2278.12	73.85	24.8049	8.51757e-5
328.476	187.697	0.571417	10.0001	10666.8	2285.00	73.61	24.0521	8.53629e-5
341.625	189.161	0.553710	10.0001	10940.3	2291.76	73.36	23.2769	8.54162e-5
355.462	190.704	0.536497	10.0001	11214.1	2298.64	73.18	22.5116	8.53737e-5
369.247	192.007	0.519996	10.0001	11500.0	2305.56	73.02	21.7736	8.54557e-5
382.158	192.918	0.504813	10.0001	11778.3	2312.25	72.70	21.0965	8.56720e-5
395.612	193.598	0.489363	10.0001	12035.5	2319.20	72.55	20.4055	8.56696e-5
409.254	194.141	0.474378	10.0001	12297.2	2326.03	72.28	19.7323	8.57072e-5
423.206	194.499	0.459584	10.0001	12559.7	2332.83	72.05	19.0657	8.57329e-5
435.842	194.659	0.446626	10.0001	12823.2	2339.10	71.83	18.4805	8.59473e-5
448.717	194.211	0.432813	10.0001	13059.1	2346.06	71.61	17.8657	8.59980e-5
462.244	193.855	0.419378	10.0001	13291.8	2352.79	71.40	17.2613	8.59533e-5
475.398	193.588	0.407212	10.0001	13535.7	2359.70	71.18	16.7088	8.60269e-5
489.487	192.828	0.393938	10.0001	13772.4	2366.45	70.91	16.1119	8.59867e-5
501.420	192.073	0.383059	10.0001	14019.1	2372.71	70.65	15.6222	8.62523e-5
513.790	190.874	0.371502	10.0001	14226.4	2379.58	70.48	15.1072	8.62527e-5
526.253	189.999	0.361041	10.0001	14436.3	2386.30	70.28	14.6340	8.62495e-5
539.004	188.625	0.349951	10.0001	14649.4	2393.23	70.03	14.1391	8.62742e-5
551.365	186.702	0.338618	10.0001	14862.8	2399.93	69.80	13.6401	8.63553e-5

[step]
Temperature ramp - 2
Storage modulus	Loss modulus	Tan(delta)	Angular frequency	Oscillation torque	Step time	Temperature	Raw phase	Oscillation displacement
MPa	MPa		rad/s	µN.m	s	°C	°	rad
549.570	188.476	0.342951	10.0001	15208.8	6.09691	70.25	13.8103	8.84688e-5
539.357	189.411	0.351180	10.0001	15039.0	13.0805	70.56	14.1810	8.84887e-5
524.737	190.404	0.362856	10.0001	14866.8	19.8044	70.86	14.7108	8.89597e-5
508.135	191.825	0.377507	10.0001	14616.8	26.6181	71.13	15.3681	8.91861e-5
492.237	192.710	0.391498	10.0001	14334.8	33.4294	71.37	16.0011	8.91889e-5
477.411	193.617	0.405555	10.0001	14059.0	40.4060	71.57	16.6314	8.91075e-5
464.607	193.728	0.416972	10.0001	13800.2	47.0952	71.70	17.1536	8.89610e-5
450.908	194.309	0.430930	10.0001	13568.6	53.9155	71.96	17.7782	8.90796e-5
435.317	194.571	0.446965	10.0001	13323.3	60.8572	72.21	18.4977	8.93716e-5
419.702	194.133	0.462551	10.0001	13038.3	67.6390	72.46	19.2064	8.94805e-5
404.428	193.244	0.477822	10.0001	12743.9	74.3863	72.70	19.9052	8.95351e-5
390.507	192.946	0.494091	10.0001	12448.6	81.3133	72.83	20.6282	8.93702e-5
375.231	192.534	0.513107	10.0001	12182.8	88.1051	73.18	21.4649	8.96257e-5
361.609	191.034	0.528288	10.0001	11888.9	94.2954	73.35	22.1531	8.95544e-5
346.250	190.245	0.549445	10.0001	11610.2	101.039	73.60	23.0705	8.98113e-5
332.272	188.086	0.566060	10.0001	11305.3	107.746	73.77	23.8196	8.98215e-5
318.389	186.192	0.584792	10.0001	11006.8	114.569	73.98	24.6411	8.98552e-5
305.514	184.465	0.603787	10.0001	10712.6	121.179	74.24	25.4592	8.97608e-5
291.303	181.736	0.623875	10.0001	10436.5	128.013	74.43	26.3359	9.01966e-5
277.825	179.080	0.644578	10.0001	10118.3	134.854	74.69	27.2231	9.01661e-5
264.862	176.023	0.664583	10.0001	9812.76	141.659	75.03	28.0804	9.02191e-5
252.319	172.928	0.685355	10.0001	9508.29	148.545	75.18	28.9574	9.02529e-5
240.846	169.854	0.705239	10.0001	9210.53	155.300	75.34	29.7885	9.01649e-5
229.328	166.681	0.726825	10.0001	8931.98	162.145	75.59	30.6724	9.03016e-5
217.668	163.077	0.749200	10.0001	8647.85	168.939	75.85	31.5832	9.05281e-5
206.019	159.084	0.772179	10.0001	8351.36	175.834	76.03	32.5116	9.07387e-5
194.996	155.192	0.795877	10.0001	8046.41	182.606	76.25	33.4471	9.07332e-5
184.982	151.177	0.817250	10.0001	7753.64	189.518	76.54	34.2908	9.06612e-5
175.787	147.650	0.839938	10.0001	7476.49	196.288	76.73	35.1512	9.04798e-5
166.991	143.769	0.860938	10.0001	7223.33	203.205	76.96	35.9529	9.05936e-5
157.577	139.473	0.885109	10.0001	6968.90	209.934	77.28	36.8557	9.10081e-5
148.670	135.058	0.908435	10.0001	6692.64	216.703	77.46	37.7198	9.10743e-5
140.794	131.040	0.930718	10.0001	6422.96	223.359	77.61	38.5256	9.08381e-5
133.239	126.979	0.953012	10.0001	6179.63	230.169	77.87	39.3200	9.09106e-5
125.443	122.685	0.978015	10.0001	5940.00	236.975	78.08	40.1874	9.12293e-5
117.682	118.182	1.00425	10.0001	5689.22	243.809	78.33	41.0799	9.14813e-5
111.060	114.069	1.02710	10.0001	5433.60	250.674	78.56	41.8492	9.11568e-5
104.510	110.003	1.05257	10.0001	5207.64	257.430	78.78	42.6747	9.12907e-5
98.7211	106.057	1.07430	10.0001	4983.86	264.206	79.03	43.3824	9.11625e-5
93.5899	102.454	1.09471	10.0001	4776.79	271.045	79.26	44.0331	9.09343e-5
87.7921	98.3232	1.11995	10.0001	4587.99	277.886	79.42	44.8142	9.16177e-5
82.1757	94.2109	1.14646	10.0001	4373.42	284.823	79.74	45.6108	9.17516e-5
77.1670	90.2293	1.16927	10.0001	4162.21	291.491	79.90	46.2988	9.16552e-5
72.9403	86.8448	1.19063	10.0001	3965.86	298.474	80.17	46.9211	9.11777e-5
68.9034	83.5967	1.21324	10.0001	3798.08	304.621	80.34	47.5577	9.11689e-5
64.4025	79.7241	1.23790	10.0001	3635.15	311.476	80.58	48.2515	9.19790e-5
60.5058	76.1469	1.25851	10.0001	3449.58	318.284	80.85	48.8329	9.17416e-5
57.2700	73.1713	1.27766	10.0001	3282.89	325.126	81.07	49.3539	9.11971e-5
53.7434	69.9030	1.30068	10.0001	3141.32	331.932	81.24	49.9603	9.17505e-5
51.2347	67.4779	1.31704	10.0001	2989.19	338.312	81.43	50.3882	9.07107e-5
48.0526	64.2870	1.33785	10.0001	2874.12	345.071	81.69	50.9294	9.18858e-5
44.6204	60.7759	1.36207	10.0001	2726.70	351.909	81.92	51.5420	9.25891e-5
41.5996	57.5313	1.38298	10.0001	2566.76	358.684	82.17	52.0701	9.23835e-5
38.7989	54.5353	1.40559	10.0001	2421.01	365.687	82.47	52.6141	9.22491e-5
36.3821	51.6013	1.41831	10.0001	2285.60	372.514	82.62	52.9608	9.21874e-5
33.9251	48.9637	1.44329	10.0001	2160.08	379.189	82.83	53.5229	9.21939e-5
31.7722	46.4415	1.46170	10.0001	2040.17	385.940	83.08	53.9512	9.20538e-5
29.8269	44.0612	1.47723	10.0001	1929.56	392.778	83.27	54.3172	9.19601e-5
27.9861	41.7952	1.49343	10.0001	1826.56	399.601	83.54	54.6870	9.19648e-5
26.3364	39.6810	1.50670	10.0001	1728.23	406.391	83.74	54.9964	9.18048e-5
24.7138	37.6094	1.52180	10.0001	1636.88	413.207	84.01	55.3332	9.19264e-5
23.2639	35.6813	1.53376	10.0001	1548.21	419.972	84.23	55.6080	9.17740e-5
22.0332	34.0331	1.54463	10.0001	1467.55	426.159	84.45	55.8519	9.13135e-5
20.7066	32.2006	1.55509	10.0001	1395.83	433.085	84.64	56.0942	9.18984e-5
19.4481	30.4269	1.56452	10.0001	1318.29	439.785	84.82	56.3159	9.19494e-5
18.3538	28.8864	1.57387	10.0001	1244.70	446.660	85.08	56.5264	9.15364e-5
17.2717	27.3450	1.58323	10.0001	1179.44	453.403	85.35	56.7361	9.17176e-5
16.3352	25.9054	1.58587	10.0001	1115.47	460.275	85.50	56.8316	9.15526e-5
15.4041	24.5874	1.59616	10.0001	1056.49	467.038	85.79	57.0468	9.14744e-5
14.5183	23.2612	1.60220	10.0001	1000.37	473.945	86.07	57.1925	9.15857e-5
13.7035	22.0478	1.60892	10.0001	945.614	480.788	86.17	57.3448	9.14101e-5
13.0368	20.9869	1.60982	10.0001	896.130	487.551	86.39	57.3983	9.09838e-5
12.3041	19.9011	1.61744	10.0001	852.017	494.376	86.74	57.5596	9.12929e-5
11.6703	18.8883	1.61849	10.0001	806.912	501.174	86.89	57.6137	9.10822e-5
11.0882	17.9793	1.62148	10.0001	766.289	508.057	87.10	57.6947	9.08770e-5
10.4959	17.0501	1.62446	10.0001	728.284	514.837	87.41	57.7764	9.10894e-5
9.90737	16.1440	1.62949	10.0001	689.743	521.600	87.56	57.8894	9.11542e-5
9.41410	15.3873	1.63450	10.0001	653.424	528.491	87.78	57.9961	9.06524e-5
8.93622	14.6143	1.63540	10.0001	621.427	535.304	88.03	58.0393	9.07573e-5
8.46274	13.8588	1.63763	10.0001	589.502	542.295	88.32	58.1026	9.07932e-5
8.06184	13.2254	1.64050	10.0001	559.817	549.111	88.45	58.1714	9.03786e-5
7.71403	12.6520	1.64012	10.0001	534.314	555.804	88.70	58.1874	9.01399e-5
7.34163	12.0578	1.64239	10.0001	510.513	562.661	88.93	58.2455	9.03804e-5
6.91386	11.3939	1.64798	10.0001	484.500	569.460	89.20	58.3575	9.08323e-5
6.54280	10.8201	1.65374	10.0001	458.554	576.318	89.40	58.4685	9.06042e-5
6.25282	10.3192	1.65032	10.0001	435.861	583.144	89.62	58.4355	9.02308e-5
5.94569	9.85867	1.65812	10.0001	416.110	589.924	89.89	58.5733	9.02556e-5
5.67051	9.36111	1.65084	10.0001	395.972	596.722	90.10	58.4814	9.03335e-5
5.34580	8.89990	1.66484	10.0001	376.674	603.549	90.38	58.7140	9.05608e-5
5.08811	8.48944	1.66849	10.0001	357.894	610.298	90.53	58.7859	9.02490e-5
4.79912	8.07847	1.68332	10.0001	340.410	617.179	90.77	59.0261	9.04075e-5
4.54406	7.68016	1.69015	10.0001	323.271	623.953	91.05	59.1444	9.03902e-5
4.35699	7.38373	1.69469	10.0001	308.391	630.319	91.15	59.2241	8.97432e-5
4.12499	7.02263	1.70246	10.0001	294.815	637.055	91.47	59.3540	9.02926e-5
3.91254	6.69162	1.71030	10.0001	280.073	644.064	91.68	59.4832	9.01200e-5
3.71605	6.40385	1.72330	10.0001	267.232	650.888	91.96	59.6844	8.99982e-5
3.54466	6.12247	1.72724	10.0001	255.037	657.614	92.11	59.7538	8.99051e-5
3.36795	5.82182	1.72859	10.0001	243.235	664.427	92.39	59.7868	9.01694e-5
3.16759	5.53038	1.74592	10.0001	231.095	671.202	92.59	60.0475	9.04007e-5
2.99869	5.24567	1.74932	10.0001	218.744	678.163	92.82	60.1090	9.02601e-5
2.85762	5.04758	1.76636	10.0001	208.818	684.828	93.02	60.3574	8.97423e-5
2.72713	4.84351	1.77605	10.0001	199.997	691.652	93.22	60.5018	8.96917e-5
2.54810	4.61782	1.81226	10.0001	191.245	698.602	93.45	61.0055	9.03805e-5
2.43202	4.38945	1.80486	10.0001	181.197	705.324	93.76	60.9178	8.99917e-5
2.30369	4.21123	1.82804	10.0001	173.173	712.190	93.93	61.2366	8.99103e-5
2.18241	4.00013	1.83290	10.0001	164.765	718.967	94.18	61.3122	9.01076e-5
2.07219	3.80939	1.83834	10.0001	156.581	725.751	94.40	61.3945	8.99820e-5
1.93803	3.67310	1.89528	10.0001	149.888	732.705	94.61	62.1311	8.99350e-5
1.84615	3.50327	1.89761	10.0001	142.622	738.906	94.83	62.1705	8.97437e-5
1.78455	3.33938	1.87127	10.0001	136.141	745.737	95.08	61.8487	8.96006e-5
1.67973	3.19249	1.90059	10.0001	130.272	752.588	95.22	62.2277	8.99871e-5
1.60417	3.04485	1.89808	10.0001	123.936	759.351	95.51	62.2065	8.97282e-5
1.49856	2.91106	1.94257	10.0001	118.414	766.179	95.74	62.7609	9.01158e-5
1.40418	2.78439	1.98293	10.0001	112.901	773.146	96.00	63.2479	9.01997e-5
1.34444	2.65522	1.97497	10.0001	107.099	779.934	96.15	63.1652	8.96559e-5
1.29435	2.53161	1.95589	10.0001	102.200	786.681	96.45	62.9503	8.95594e-5
1.20285	2.40786	2.00180	10.0001	97.4931	793.637	96.67	63.4975	9.02474e-5
1.13702	2.27706	2.00265	10.0001	91.9217	800.380	96.89	63.5196	8.99899e-5
1.10423	2.22017	2.01060	10.0001	88.3153	807.208	97.10	63.6161	8.87453e-5
1.02175	2.09654	2.05192	10.0001	84.7007	813.481	97.37	64.0920	9.04868e-5
0.954259	1.98595	2.08114	10.0001	79.7625	820.311	97.53	64.4231	9.02061e-5
0.904203	1.89040	2.09069	10.0001	75.4497	827.151	97.79	64.5372	8.97200e-5
0.865116	1.79751	2.07777	10.0001	71.7274	833.766	97.98	64.4105	8.95986e-5
0.797388	1.71503	2.15081	10.0001	68.3448	840.612	98.20	65.1897	9.00397e-5
0.792652	1.65646	2.08977	10.0001	65.2309	847.453	98.45	64.5599	8.85229e-5
0.741385	1.56622	2.11255	10.0001	62.6549	854.424	98.73	64.8163	9.01024e-5
0.714065	1.51609	2.12319	10.0001	59.8778	861.110	98.86	64.9365	8.90546e-5
0.668673	1.42161	2.12602	10.0001	57.0162	868.051	99.16	64.9836	9.04514e-5
0.621690	1.37595	2.21324	10.0001	54.2595	874.747	99.35	65.8720	8.95691e-5
0.590340	1.29949	2.20125	10.0001	51.4780	881.558	99.60	65.7713	8.99016e-5
0.568942	1.21761	2.14014	10.0001	48.3165	888.349	99.86	65.1755	8.96285e-5
0.540094	1.15804	2.14414	10.0001	45.9406	895.180	100.06	65.2326	8.96385e-5
0.514760	1.12984	2.19489	10.0001	44.3158	901.969	100.33	65.7525	8.89817e-5
0.496603	1.05838	2.13123	10.0001	42.0995	908.845	100.45	65.1292	8.98045e-5
0.464024	1.02531	2.20960	10.0001	40.3440	915.745	100.77	65.9306	8.93975e-5
0.433043	0.958660	2.21377	10.0001	38.0832	922.466	100.94	65.9961	9.02969e-5
0.420616	0.913552	2.17194	10.0001	35.9509	928.749	101.22	65.5996	8.91610e-5
0.412931	0.873836	2.11618	10.0001	34.4161	935.623	101.39	65.0430	8.88440e-5
0.376279	0.843020	2.24041	10.0001	33.2768	942.511	101.54	66.3050	8.99367e-5
0.367097	0.798308	2.17465	10.0001	31.4183	949.384	101.80	65.6827	8.92240e-5
0.341303	0.750936	2.20021	10.0001	29.7808	956.195	102.09	65.9651	9.01079e-5
0.317532	0.715892	2.25455	10.0001	28.1807	962.972	102.35	66.5138	8.98122e-5
0.317040	0.687218	2.16760	10.0001	26.8156	969.905	102.49	65.6817	8.84659e-5
0.306655	0.658345	2.14686	10.0001	25.9049	976.616	102.76	65.4917	8.90723e-5
0.267918	0.652076	2.43386	10.0001	25.3301	983.492	103.03	68.1566	8.96892e-5
0.272890	0.585437	2.14532	10.0001	23.1932	990.399	103.21	65.5400	8.97039e-5
0.246421	0.580033	2.35383	10.0001	22.5515	997.150	103.43	67.5366	8.93750e-5
0.249170	0.560028	2.24758	10.0001	21.6047	1003.94	103.63	66.5817	8.80621e-5
0.251888	0.528170	2.09684	10.0001	20.7564	1010.82	103.85	65.0922	8.86663e-5
0.239093	0.514069	2.15008	10.0001	20.2046	1017.59	104.10	65.6689	8.90872e-5
0.240188	0.498264	2.07448	10.0001	19.5136	1024.45	104.36	64.8880	8.82153e-5
0.213649	0.456436	2.13638	10.0001	18.4294	1031.36	104.55	65.6092	9.14686e-5
0.206200	0.445319	2.15964	10.0001	17.3838	1038.16	104.79	65.8677	8.86134e-5
0.208477	0.416546	1.99804	10.0001	16.5186	1044.98	105.03	64.1557	8.87739e-5
0.201799	0.398411	1.97430	10.0001	15.8626	1051.84	105.25	63.9122	8.89478e-5
0.187225	0.383317	2.04736	10.0001	15.3130	1058.74	105.47	64.7861	8.99079e-5
0.168115	0.376656	2.24046	10.0001	14.7647	1065.44	105.76	66.8081	8.96215e-5
0.171126	0.344471	2.01297	10.0001	13.6861	1072.27	105.96	64.4913	8.91894e-5
0.162149	0.332625	2.05136	10.0001	13.1746	1079.14	106.20	64.9606	8.92594e-5
0.155900	0.329991	2.11668	10.0001	12.8612	1086.03	106.38	65.6803	8.83385e-5
0.146992	0.301249	2.04943	10.0001	12.0797	1092.72	106.59	65.0411	9.04208e-5
0.137130	0.293928	2.14343	10.0001	11.5035	1099.49	106.81	66.0848	8.89912e-5
0.135165	0.291090	2.15359	10.0001	11.2532	1106.42	107.15	66.2012	8.79782e-5
0.132901	0.272498	2.05039	10.0001	10.7681	1113.14	107.26	65.1661	8.91970e-5
0.131385	0.258611	1.96834	10.0001	10.2484	1119.94	107.55	64.2773	8.87941e-5
0.118463	0.256049	2.16143	10.0001	10.0560	1126.76	107.76	66.4381	8.95277e-5
0.116259	0.245672	2.11316	10.0001	9.58675	1133.65	107.96	65.9857	8.86566e-5
0.114926	0.231129	2.01110	10.0001	9.12978	1140.51	108.19	64.9308	8.89894e-5
0.100040	0.227055	2.26964	10.0001	8.88336	1147.30	108.49	67.6771	9.00075e-5
0.106744	0.210610	1.97304	10.0001	8.25859	1154.04	108.64	64.6173	8.81160e-5
0.107295	0.207161	1.93076	10.0001	8.14677	1160.65	108.83	64.1256	8.80054e-5
0.0958821	0.191649	1.99880	10.0001	7.71871	1167.50	109.12	65.0755	9.08392e-5
0.100548	0.190753	1.89713	10.0001	7.43667	1174.36	109.41	63.8329	8.70238e-5
0.0925103	0.181271	1.95947	10.0001	7.23236	1181.12	109.54	64.7003	8.97099e-5
0.0970989	0.175060	1.80291	10.0001	6.91958	1187.95	109.75	62.7213	8.73718e-5
0.0885825	0.176538	1.99292	10.0001	6.95033	1194.72	110.03	65.1508	8.88494e-5
0.0829678	0.164510	1.98282	10.0001	6.52837	1201.55	110.26	65.1646	8.95681e-5
0.0845606	0.163229	1.93032	10.0001	6.35379	1208.49	110.47	64.5360	8.74043e-5
0.0811122	0.150573	1.85636	10.0001	6.05632	1215.23	110.65	63.7426	8.97218e-5
0.0791368	0.148129	1.87180	10.0001	5.84100	1222.13	110.98	63.9823	8.81255e-5
0.0780172	0.142153	1.82208	10.0001	5.66511	1228.89	111.12	63.4009	8.86247e-5
0.0725862	0.135725	1.86984	10.0001	5.43403	1235.68	111.45	64.1527	8.96038e-5
0.0746115	0.130637	1.75090	10.0001	5.19566	1242.48	111.63	62.5797	8.78008e-5
0.0660823	0.129416	1.95841	10.0001	5.13717	1249.39	111.82	65.4025	8.97628e-5
0.0671354	0.125605	1.87092	10.0001	4.92247	1256.11	112.12	64.3565	8.78622e-5
0.0643893	0.121527	1.88738	10.0001	4.79247	1263.08	112.24	64.6599	8.86439e-5
0.0609603	0.114080	1.87138	10.0001	4.55649	1269.93	112.52	64.6203	8.97467e-5
0.0622938	0.110588	1.77526	10.0001	4.36806	1276.77	112.81	63.3691	8.78086e-5
0.0607535	0.105646	1.73893	10.0001	4.23627	1283.43	113.04	62.9647	8.88286e-5
0.0585096	0.103225	1.76424	10.0001	4.11102	1290.26	113.17	63.4108	8.85726e-5
0.0571848	0.0997038	1.74354	10.0001	3.98684	1297.08	113.44	63.2100	8.87669e-5
0.0545316	0.0931114	1.70748	10.0001	3.77034	1304.01	113.67	62.8803	8.96294e-5
0.0526176	0.0912655	1.73450	10.0001	3.63395	1310.92	113.91	63.3645	8.85173e-5
0.0508212	0.0841750	1.65630	10.0001	3.42181	1317.85	114.15	62.4158	8.96059e-5
0.0519687	0.0875878	1.68539	10.0001	3.41938	1324.58	114.36	62.7432	8.63099e-5
0.0471045	0.0806396	1.71193	10.0001	3.28866	1331.51	114.60	63.4696	9.07412e-5
0.0457414	0.0793869	1.73556	10.0001	3.14149	1338.32	114.85	63.8977	8.83794e-5
0.0452602	0.0760395	1.68005	10.0001	3.02642	1345.08	115.03	63.1978	8.83461e-5
0.0443680	0.0733379	1.65295	10.0001	2.93283	1351.98	115.25	62.9047	8.85392e-5
0.0418605	0.0694406	1.65886	10.0001	2.80233	1358.75	115.52	63.2417	8.96118e-5
0.0411334	0.0676542	1.64475	10.0001	2.68954	1365.54	115.72	63.1250	8.81914e-5
0.0411653	0.0661748	1.60754	10.0001	2.63662	1372.39	115.93	62.5893	8.79689e-5
0.0391704	0.0653460	1.66825	10.0001	2.60204	1379.20	116.19	63.6813	8.87654e-5
0.0374523	0.0649889	1.73524	10.0001	2.53965	1385.99	116.34	64.7830	8.79171e-5
0.0390410	0.0624575	1.59979	10.0001	2.47518	1392.77	116.61	62.7320	8.76110e-5
0.0367343	0.0593880	1.61669	10.0001	2.39417	1399.61	116.88	63.2865	8.95491e-5
0.0345931	0.0568500	1.64339	10.0001	2.26555	1406.42	117.05	63.9866	8.90734e-5
0.0362966	0.0574065	1.58159	10.0001	2.24498	1413.19	117.29	62.8433	8.65354e-5
0.0341810	0.0545207	1.59506	10.0001	2.19305	1419.99	117.51	63.3744	8.94249e-5
0.0328005	0.0529617	1.61466	10.0001	2.10829	1426.68	117.72	63.8948	8.88990e-5
0.0330210	0.0500933	1.51701	10.0001	2.01383	1433.57	118.00	62.4143	8.86097e-5
0.0322537	0.0497076	1.54114	10.0001	1.97700	1440.27	118.21	62.9294	8.80771e-5
0.0307712	0.0475654	1.54578	10.0001	1.90847	1447.07	118.41	63.3013	8.91495e-5
0.0309041	0.0466541	1.50964	10.0001	1.85354	1454.04	118.68	62.7247	8.78209e-5
0.0286889	0.0461697	1.60932	10.0001	1.82567	1460.80	118.86	64.6846	8.88940e-5
0.0274810	0.0442192	1.60908	10.0001	1.74610	1467.61	119.10	64.9883	8.90021e-5
0.0276993	0.0423758	1.52985	10.0001	1.67560	1474.44	119.37	63.8013	8.82252e-5
0.0271998	0.0413108	1.51879	10.0001	1.63255	1481.38	119.55	63.7747	8.81616e-5
0.0272941	0.0395739	1.44990	10.0001	1.57655	1488.05	119.82	62.6792	8.80283e-5
0.0265764	0.0396073	1.49032	10.0001	1.56454	1494.88	120.00	63.5245	8.79362e-5
0.0257764	0.0382855	1.48529	10.0001	1.52180	1501.70	120.22	63.6946	8.86164e-5
0.0248535	0.0371435	1.49449	10.0001	1.47417	1508.52	120.56	64.1403	8.88171e-5
0.0219026	0.0360352	1.64525	10.0001	1.41664	1515.32	120.69	67.3294	9.02169e-5
0.0227104	0.0345506	1.52136	10.0001	1.34250	1522.13	120.93	65.3423	8.78148e-5
0.0233383	0.0339592	1.45508	10.0001	1.32534	1528.93	121.15	64.1024	8.73129e-5
0.0214279	0.0326624	1.52429	10.0001	1.28961	1535.84	121.42	65.9475	8.96577e-5
0.0208571	0.0324909	1.55778	10.0001	1.25230	1542.69	121.61	66.6786	8.80166e-5
0.0212360	0.0317173	1.49357	10.0001	1.22745	1549.49	121.85	65.6023	8.76417e-5
0.0201150	0.0301944	1.50109	10.0001	1.18355	1556.26	122.05	66.2843	8.92525e-5
0.0193577	0.0295500	1.52653	10.0001	1.14238	1563.11	122.26	67.0600	8.85436e-5
0.0199053	0.0290826	1.46105	10.0001	1.12073	1569.94	122.52	65.8250	8.74275e-5
0.0197361	0.0279502	1.41620	10.0001	1.09431	1576.76	122.71	65.2497	8.84256e-5
0.0184965	0.0269681	1.45801	10.0001	1.05371	1583.68	123.00	66.6429	8.92031e-5
0.0180956	0.0265005	1.46447	10.0001	1.02068	1590.48	123.20	67.0064	8.81699e-5
0.0176585	0.0256117	1.45039	10.0001	0.991045	1597.28	123.48	67.1205	8.86567e-5
0.0170122	0.0253365	1.48931	10.0001	0.970002	1604.10	123.69	68.1460	8.83672e-5
0.0169557	0.0250975	1.48018	10.0001	0.955816	1610.99	123.93	68.0673	8.78463e-5
0.0159076	0.0243123	1.52834	10.0001	0.928836	1617.76	124.09	69.5693	8.90383e-5
0.0163955	0.0238699	1.45588	10.0001	0.903885	1624.44	124.39	68.2034	8.74280e-5
0.0158333	0.0228446	1.44282	10.0001	0.878929	1631.41	124.56	68.5355	8.90473e-5
0.0145073	0.0215594	1.48610	10.0001	0.827190	1638.27	124.82	70.4500	8.99262e-5
0.0147060	0.0219391	1.49185	10.0001	0.815279	1644.98	125.06	70.3004	8.70066e-5
0.0142861	0.0213265	1.49281	10.0001	0.803363	1651.80	125.32	70.7783	8.84517e-5
0.0142215	0.0209233	1.47125	10.0001	0.784374	1658.68	125.41	70.5939	8.79300e-5
0.0136775	0.0200369	1.46496	10.0001	0.756832	1665.55	125.69	71.1867	8.89196e-5
0.0130432	0.0197452	1.51382	10.0001	0.736049	1672.23	125.94	72.5873	8.84533e-5
0.0128525	0.0198195	1.54207	10.0001	0.731750	1679.09	126.20	73.1532	8.78778e-5
0.0129400	0.0185418	1.43290	10.0001	0.696382	1685.99	126.38	71.8197	8.87377e-5
0.0122786	0.0179423	1.46127	10.0001	0.670408	1692.93	126.62	73.1691	8.89412e-5
0.0122005	0.0175517	1.43860	10.0001	0.649671	1699.66	126.81	73.0514	8.80619e-5
0.0123653	0.0170751	1.38089	10.0001	0.635458	1706.47	127.01	72.1050	8.80844e-5
0.0113830	0.0161710	1.42063	10.0001	0.605782	1713.30	127.32	74.3436	8.97019e-5
0.0111680	0.0160722	1.43913	10.0001	0.588373	1720.02	127.48	74.9648	8.79215e-5
0.0111262	0.0162170	1.45755	10.0001	0.589750	1726.99	127.79	75.2293	8.74415e-5
0.0104559	0.0155879	1.49083	10.0001	0.572769	1733.79	127.96	76.9797	8.90332e-5
0.0104370	0.0154043	1.47594	10.0001	0.558284	1740.57	128.24	76.8945	8.77782e-5
0.0100104	0.0147440	1.47286	10.0001	0.539562	1747.47	128.41	77.9047	8.89858e-5
9.84666e-3	0.0143846	1.46087	10.0001	0.520471	1754.23	128.63	78.2360	8.80903e-5
0.0101611	0.0145059	1.42759	10.0001	0.519400	1761.18	128.96	77.1428	8.68023e-5
0.0100763	0.0138164	1.37118	10.0001	0.504877	1767.92	129.15	76.8576	8.84859e-5
9.55400e-3	0.0135376	1.41695	10.0001	0.492153	1774.81	129.35	78.7087	8.86595e-5
8.78485e-3	0.0132508	1.50837	10.0001	0.480397	1781.55	129.52	81.6976	8.92164e-5
8.89127e-3	0.0127170	1.43028	10.0001	0.457119	1788.46	129.86	80.8854	8.82621e-5
8.66085e-3	0.0123749	1.42883	10.0001	0.444768	1795.25	130.06	81.6800	8.84415e-5
8.21244e-3	0.0122835	1.49572	10.0001	0.439432	1802.12	130.25	83.6746	8.84204e-5
8.28638e-3	0.0117952	1.42344	10.0001	0.421760	1808.84	130.43	83.0618	8.82708e-5
8.13221e-3	0.0117835	1.44899	10.0001	0.418390	1815.72	130.71	83.7941	8.77800e-5
7.81975e-3	0.0113582	1.45251	10.0001	0.407219	1822.51	130.94	85.1269	8.88412e-5
7.83805e-3	0.0113272	1.44516	10.0001	0.401006	1829.31	131.11	85.0210	8.77095e-5
7.64507e-3	0.0110101	1.44016	10.0001	0.392511	1836.23	131.40	85.8731	8.84214e-5
7.08483e-3	0.0108511	1.53159	10.0001	0.387288	1842.85	131.69	88.7675	8.87425e-5
7.18816e-3	0.0105329	1.46531	10.0001	0.372892	1849.60	131.87	88.1668	8.79955e-5
7.10874e-3	0.0103758	1.45958	10.0001	0.366988	1856.47	132.08	88.5769	8.79307e-5
7.05614e-3	0.0101029	1.43179	10.0001	0.358191	1863.19	132.27	88.8390	8.81556e-5
6.88684e-3	9.90941e-3	1.43889	10.0001	0.351503	1870.10	132.46	89.7935	8.82127e-5
6.77012e-3	9.67213e-3	1.42865	10.0001	0.342950	1876.85	132.76	90.4830	8.81821e-5
6.44798e-3	9.36507e-3	1.45240	10.0001	0.334328	1883.74	133.07	92.4678	8.87037e-5
6.41765e-3	9.15068e-3	1.42586	10.0001	0.324270	1890.57	133.18	92.7111	8.80257e-5
6.33645e-3	8.92326e-3	1.40824	10.0001	0.316710	1897.38	133.42	93.3050	8.81266e-5
6.23148e-3	8.79786e-3	1.41184	10.0001	0.311918	1904.19	133.63	94.0306	8.79544e-5
6.04386e-3	8.86458e-3	1.46671	10.0001	0.313997	1911.02	133.91	95.2034	8.77255e-5
5.82568e-3	8.39318e-3	1.44072	10.0001	0.302269	1917.94	134.14	96.9648	8.88983e-5
5.88132e-3	8.28230e-3	1.40824	10.0001	0.293909	1924.68	134.32	96.6800	8.76534e-5
5.79651e-3	8.18756e-3	1.41250	10.0001	0.291839	1931.55	134.57	97.3393	8.79152e-5
5.30431e-3	8.11829e-3	1.53051	10.0001	0.294420	1938.36	134.81	100.787	8.85946e-5
5.49908e-3	7.83127e-3	1.42411	10.0001	0.280515	1944.67	135.04	99.7950	8.77797e-5
5.36154e-3	7.66720e-3	1.43004	10.0001	0.276780	1950.82	135.19	100.999	8.81319e-5
5.26823e-3	7.40379e-3	1.40537	10.0001	0.268517	1957.63	135.46	102.070	8.82012e-5
5.00086e-3	7.37937e-3	1.47562	10.0001	0.269887	1964.48	135.73	104.070	8.82137e-5
4.97945e-3	7.20208e-3	1.44636	10.0001	0.262803	1971.21	135.89	104.571	8.78319e-5
4.98639e-3	7.03251e-3	1.41034	10.0001	0.256969	1978.02	136.15	104.848	8.78312e-5
4.71518e-3	6.89911e-3	1.46317	10.0001	0.256279	1984.83	136.43	107.198	8.82399e-5
4.72174e-3	6.66319e-3	1.41117	10.0001	0.247732	1991.63	136.61	107.722	8.80708e-5
4.55465e-3	6.46339e-3	1.41908	10.0001	0.243515	1998.57	136.79	109.557	8.82836e-5
4.55798e-3	6.48921e-3	1.42370	10.0001	0.242101	2005.28	137.08	109.461	8.74776e-5
4.37963e-3	6.23204e-3	1.42296	10.0001	0.238430	2012.17	137.32	111.630	8.84406e-5
4.33806e-3	6.12218e-3	1.41127	10.0001	0.233915	2018.95	137.47	112.314	8.78962e-5
4.28053e-3	6.09546e-3	1.42400	10.0001	0.233214	2025.78	137.72	112.863	8.76667e-5
4.26559e-3	5.80956e-3	1.36196	10.0001	0.225798	2032.57	138.03	113.987	8.83015e-5
4.18945e-3	5.79757e-3	1.38385	10.0001	0.225022	2039.41	138.17	114.655	8.77156e-5
4.04567e-3	5.67613e-3	1.40302	10.0001	0.224553	2046.14	138.37	116.301	8.81974e-5
4.00479e-3	5.63633e-3	1.40739	10.0001	0.223020	2053.02	138.64	116.794	8.78359e-5
3.88340e-3	5.47795e-3	1.41060	10.0001	0.220786	2059.34	138.87	118.446	8.81283e-5
3.79436e-3	5.32232e-3	1.40269	10.0001	0.217740	2066.17	139.09	119.871	8.82240e-5
3.80714e-3	5.28628e-3	1.38852	10.0001	0.214939	2073.06	139.33	119.926	8.76198e-5
3.62987e-3	5.21577e-3	1.43690	10.0001	0.216941	2079.88	139.51	121.696	8.80029e-5
3.74051e-3	5.02936e-3	1.34456	10.0001	0.208586	2086.68	139.75	121.738	8.77179e-5
3.60915e-3	5.15129e-3	1.42728	10.0001	0.214413	2093.48	139.98	122.182	8.76033e-5
3.53315e-3	4.92862e-3	1.39496	10.0001	0.210600	2100.38	140.16	123.951	8.81503e-5
3.47063e-3	4.91628e-3	1.41654	10.0001	0.210467	2107.20	140.44	124.512	8.77241e-5
3.54945e-3	4.79517e-3	1.35096	10.0001	0.205010	2114.00	140.62	124.555	8.75739e-5
3.49896e-3	4.68702e-3	1.33955	10.0001	0.203593	2120.86	140.87	125.571	8.78628e-5
3.35627e-3	4.69842e-3	1.39989	10.0001	0.207030	2127.69	141.12	126.648	8.79254e-5
3.38864e-3	4.55172e-3	1.34323	10.0001	0.201867	2134.56	141.37	127.260	8.77797e-5
3.35819e-3	4.50300e-3	1.34090	10.0001	0.201222	2141.36	141.58	127.799	8.78070e-5
3.27578e-3	4.42547e-3	1.35097	10.0001	0.201241	2148.19	141.73	128.937	8.79655e-5
3.16032e-3	4.22638e-3	1.33732	10.0001	0.199060	2155.02	142.05	131.130	8.82238e-5
3.19548e-3	4.28841e-3	1.34202	10.0001	0.197846	2161.81	142.27	130.442	8.73110e-5
3.15837e-3	4.11659e-3	1.30339	10.0001	0.195705	2168.54	142.48	131.892	8.80055e-5
3.12894e-3	4.14623e-3	1.32512	10.0001	0.196240	2175.28	142.72	131.916	8.75861e-5
2.99495e-3	4.12396e-3	1.37697	10.0001	0.199492	2182.14	142.92	133.078	8.78688e-5
3.07272e-3	3.85490e-3	1.25456	10.0001	0.190886	2188.97	143.26	134.424	8.79430e-5
3.01809e-3	3.87861e-3	1.28512	10.0001	0.192045	2195.81	143.38	134.660	8.75811e-5
2.97688e-3	3.79722e-3	1.27557	10.0001	0.191733	2202.55	143.58	135.576	8.78942e-5
2.95889e-3	3.76440e-3	1.27223	10.0001	0.190804	2209.46	143.85	135.956	8.76298e-5
2.88752e-3	3.72028e-3	1.28840	10.0001	0.191928	2216.21	144.06	136.810	8.78011e-5
2.93840e-3	3.70375e-3	1.26046	10.0001	0.189365	2223.05	144.28	136.573	8.74070e-5
2.76073e-3	3.68049e-3	1.33316	10.0001	0.194638	2229.86	144.50	138.020	8.79664e-5
2.81244e-3	3.44086e-3	1.22344	10.0001	0.187684	2236.65	144.75	139.571	8.79695e-5
2.78531e-3	3.56826e-3	1.28110	10.0001	0.190036	2243.59	144.96	138.731	8.73620e-5
2.72153e-3	3.39573e-3	1.24773	10.0001	0.189292	2250.41	145.22	140.568	8.80470e-5
2.83718e-3	3.45229e-3	1.21680	10.0001	0.185530	2257.21	145.43	139.304	8.71466e-5
2.71010e-3	3.33709e-3	1.23135	10.0001	0.188452	2264.04	145.58	141.136	8.81204e-5
2.68078e-3	3.25363e-3	1.21369	10.0001	0.186792	2270.82	145.93	142.040	8.78211e-5
2.70086e-3	3.30436e-3	1.22345	10.0001	0.186186	2277.67	146.08	141.475	8.72782e-5
2.63498e-3	3.19435e-3	1.21229	10.0001	0.187045	2284.48	146.30	142.851	8.79371e-5
2.54333e-3	3.09745e-3	1.21787	10.0001	0.187696	2291.30	146.55	144.282	8.79740e-5
2.55335e-3	3.11100e-3	1.21840	10.0001	0.186516	2298.24	146.87	144.098	8.74242e-5
2.57515e-3	3.03250e-3	1.17760	10.0001	0.184761	2305.14	146.99	144.655	8.76497e-5
2.53613e-3	2.98248e-3	1.17599	10.0001	0.185218	2311.86	147.28	145.347	8.78117e-5
2.51715e-3	2.93727e-3	1.16690	10.0001	0.184634	2318.68	147.48	145.875	8.76994e-5
2.48838e-3	2.85522e-3	1.14742	10.0001	0.184102	2325.49	147.74	146.793	8.78090e-5
2.50342e-3	2.93806e-3	1.17362	10.0001	0.184018	2332.35	147.93	145.949	8.72106e-5
2.40681e-3	2.88486e-3	1.19862	10.0001	0.187249	2339.08	148.16	147.014	8.78841e-5
2.45781e-3	2.80896e-3	1.14287	10.0001	0.183641	2345.90	148.42	147.408	8.75788e-5
2.43437e-3	2.74994e-3	1.12963	10.0001	0.183346	2352.85	148.58	148.093	8.76347e-5
2.49569e-3	2.76616e-3	1.10838	10.0001	0.181454	2359.57	148.85	147.579	8.74581e-5
2.29316e-3	2.68389e-3	1.17039	10.0001	0.187672	2366.40	149.03	149.510	8.82338e-5
2.42219e-3	2.66984e-3	1.10224	10.0001	0.181485	2373.29	149.27	148.919	8.72724e-5
2.45283e-3	2.65350e-3	1.08181	10.0001	0.180826	2379.59	149.60	148.896	8.75434e-5
2.35479e-3	2.55094e-3	1.08330	10.0001	0.183062	2386.38	149.73	150.432	8.80628e-5
2.29942e-3	2.48680e-3	1.08149	10.0001	0.183197	2393.18	149.95	151.351	8.78356e-5
2.19272e-3	2.52327e-3	1.15075	10.0001	0.186813	2399.98	150.22	151.555	8.76912e-5

[step]
Temperature ramp - 3
Storage modulus	Loss modulus	Tan(delta)	Angular frequency	Oscillation torque	Step time	Temperature	Raw phase	Oscillation displacement
MPa	MPa		rad/s	µN.m	s	°C	°	rad
2.68728e-3	3.10529e-3	1.15555	10.0001	0.0519438	6.18641	149.76	143.288	2.48689e-5
2.96581e-3	2.69638e-3	0.909155	10.0001	0.0475581	13.1108	149.37	145.240	2.50078e-5
2.93170e-3	2.84623e-3	0.970848	10.0001	0.0484412	19.8829	149.05	144.015	2.48696e-5
2.75766e-3	2.76628e-3	1.00313	10.0001	0.0499819	26.7175	148.90	145.949	2.51587e-5
3.24462e-3	2.75852e-3	0.850183	10.0001	0.0449924	33.6769	148.65	142.590	2.46422e-5
2.90093e-3	3.30432e-3	1.13906	10.0001	0.0516007	40.4479	148.38	140.089	2.49170e-5
3.22158e-3	3.21174e-3	0.996944	10.0001	0.0483864	47.3019	148.14	138.499	2.48278e-5
3.27131e-3	3.38148e-3	1.03368	10.0001	0.0491623	53.9782	147.99	136.632	2.48273e-5
3.11739e-3	3.47019e-3	1.11317	10.0001	0.0514193	60.8476	147.82	137.094	2.50859e-5
3.37973e-3	3.46701e-3	1.02583	10.0001	0.0490037	67.6039	147.63	135.038	2.48389e-5
3.53359e-3	3.74461e-3	1.05972	10.0001	0.0496619	74.5313	147.32	131.539	2.46864e-5
3.61051e-3	3.70885e-3	1.02723	10.0001	0.0494044	81.4193	147.05	131.148	2.49457e-5
3.39722e-3	3.82209e-3	1.12506	10.0001	0.0518808	88.1546	146.85	132.104	2.50451e-5
3.68347e-3	3.61491e-3	0.981389	10.0001	0.0482000	95.0024	146.63	131.224	2.49386e-5
3.83956e-3	4.09200e-3	1.06575	10.0001	0.0502155	101.749	146.43	126.350	2.45786e-5
3.71305e-3	4.08499e-3	1.10017	10.0001	0.0518911	108.626	146.15	127.529	2.50514e-5
3.83908e-3	4.19491e-3	1.09269	10.0001	0.0517086	115.426	145.96	125.681	2.49003e-5
4.02178e-3	4.28365e-3	1.06511	10.0001	0.0511843	122.315	145.77	123.437	2.47936e-5
3.87009e-3	4.69253e-3	1.21251	10.0001	0.0555381	129.018	145.49	122.425	2.48434e-5
4.24588e-3	4.31471e-3	1.01621	10.0001	0.0504959	135.902	145.25	121.126	2.49149e-5
4.54127e-3	4.56298e-3	1.00478	10.0001	0.0506594	142.629	145.02	116.852	2.46337e-5
4.33296e-3	4.77926e-3	1.10300	10.0001	0.0542957	149.448	144.83	117.787	2.49954e-5
4.31955e-3	4.89767e-3	1.13384	10.0001	0.0552426	156.303	144.65	117.334	2.49181e-5
4.74781e-3	5.07134e-3	1.06814	10.0001	0.0542502	163.246	144.35	112.532	2.45744e-5
4.41227e-3	4.30733e-3	0.976215	10.0001	0.0511131	170.004	144.11	119.524	2.56802e-5
4.52787e-3	5.01259e-3	1.10705	10.0001	0.0543967	176.790	143.91	114.869	2.44857e-5
4.71779e-3	5.42488e-3	1.14988	10.0001	0.0575833	183.633	143.70	111.469	2.45662e-5
5.22757e-3	5.11496e-3	0.978459	10.0001	0.0535066	190.529	143.43	107.608	2.47949e-5
5.07432e-3	4.88034e-3	0.961772	10.0001	0.0526667	197.300	143.17	110.003	2.52174e-5
5.00162e-3	5.41193e-3	1.08204	10.0001	0.0568480	203.507	143.02	108.871	2.47194e-5
4.96599e-3	5.73973e-3	1.15581	10.0001	0.0602851	210.414	142.81	108.181	2.48153e-5
5.21289e-3	5.82802e-3	1.11800	10.0001	0.0603456	217.282	142.58	105.702	2.47895e-5
5.31804e-3	6.07962e-3	1.14321	10.0001	0.0624130	224.104	142.39	104.155	2.47554e-5
5.52990e-3	6.23053e-3	1.12670	10.0001	0.0634217	230.333	142.16	101.969	2.47623e-5
4.86129e-3	6.46317e-3	1.32952	10.0001	0.0686434	237.195	141.90	107.116	2.52442e-5
5.66842e-3	7.12003e-3	1.25609	10.0001	0.0701062	244.069	141.70	99.4341	2.41565e-5
5.89102e-3	6.37830e-3	1.08271	10.0001	0.0653591	250.838	141.48	98.5611	2.51995e-5
5.75163e-3	6.43719e-3	1.11919	10.0001	0.0657922	257.602	141.23	99.6930	2.50545e-5
6.50411e-3	6.68096e-3	1.02719	10.0001	0.0656947	264.494	141.06	92.9681	2.44186e-5
5.69171e-3	7.41866e-3	1.30342	10.0001	0.0755587	271.345	140.73	98.8822	2.50246e-5
6.18393e-3	6.48781e-3	1.04914	10.0001	0.0662201	278.133	140.53	95.8766	2.52517e-5
6.10543e-3	6.44181e-3	1.05510	10.0001	0.0653332	284.927	140.32	96.6028	2.50544e-5
6.20950e-3	7.51984e-3	1.21102	10.0001	0.0739371	291.764	140.07	94.8786	2.43637e-5
6.65513e-3	7.84496e-3	1.17878	10.0001	0.0773591	298.566	139.86	91.4342	2.45168e-5
6.57498e-3	7.33236e-3	1.11519	10.0001	0.0746994	305.420	139.61	92.1601	2.53188e-5
6.41122e-3	8.00696e-3	1.24890	10.0001	0.0797870	311.608	139.42	93.1467	2.47445e-5
7.13435e-3	7.50831e-3	1.05242	10.0001	0.0751039	318.386	139.20	87.8420	2.48589e-5
6.50762e-3	8.15975e-3	1.25388	10.0001	0.0819468	324.580	138.98	92.4116	2.49535e-5
6.98131e-3	8.00695e-3	1.14691	10.0001	0.0797513	331.254	138.73	89.0740	2.47693e-5
6.85512e-3	8.53318e-3	1.24479	10.0001	0.0849462	338.143	138.59	89.9718	2.47555e-5
7.38795e-3	8.22114e-3	1.11278	10.0001	0.0823929	344.943	138.31	86.2655	2.48714e-5
6.97713e-3	8.61427e-3	1.23464	10.0001	0.0864400	351.655	138.08	89.1639	2.49529e-5
7.50830e-3	9.25764e-3	1.23299	10.0001	0.0908421	358.543	137.86	85.9391	2.43413e-5
7.43558e-3	8.80444e-3	1.18410	10.0001	0.0896592	365.432	137.65	86.2022	2.52692e-5
8.13902e-3	9.17023e-3	1.12670	10.0001	0.0910902	372.177	137.38	82.0059	2.44629e-5
7.93260e-3	9.99718e-3	1.26027	10.0001	0.0995238	379.003	137.18	83.8240	2.46124e-5
8.26563e-3	9.49036e-3	1.14817	10.0001	0.0966049	385.821	136.94	81.5259	2.50402e-5
8.49420e-3	9.08037e-3	1.06901	10.0001	0.0929237	392.636	136.77	79.7438	2.50429e-5
8.98787e-3	9.76641e-3	1.08662	10.0001	0.0979915	399.445	136.51	77.6578	2.43747e-5
8.48932e-3	0.0104217	1.22762	10.0001	0.105381	406.311	136.23	81.0670	2.48418e-5
8.54137e-3	9.86483e-3	1.15495	10.0001	0.101584	413.152	136.01	80.2815	2.52441e-5
8.78479e-3	0.0103148	1.17416	10.0001	0.104065	419.995	135.88	79.3825	2.46606e-5
8.40992e-3	0.0115800	1.37695	10.0001	0.115442	426.728	135.57	82.3319	2.45691e-5
9.00240e-3	0.0114121	1.26768	10.0001	0.115881	433.593	135.36	79.3271	2.48173e-5
0.0100645	0.0112625	1.11904	10.0001	0.115672	440.405	135.09	74.0779	2.45634e-5
9.45149e-3	0.0124344	1.31561	10.0001	0.126096	447.196	134.91	78.1872	2.46844e-5
9.64010e-3	0.0121365	1.25896	10.0001	0.125263	454.032	134.69	77.0582	2.50158e-5
0.0105128	0.0118262	1.12493	10.0001	0.123305	460.949	134.42	72.7948	2.47680e-5
9.96785e-3	0.0128645	1.29059	10.0001	0.131494	467.756	134.22	76.3799	2.47039e-5
0.0102496	0.0135093	1.31804	10.0001	0.137705	474.537	134.02	75.8795	2.45839e-5
0.0106944	0.0134899	1.26140	10.0001	0.139914	481.337	133.82	74.0972	2.48059e-5
0.0103602	0.0139487	1.34637	10.0001	0.144284	488.242	133.54	75.8791	2.49470e-5
0.0111255	0.0140681	1.26449	10.0001	0.145812	494.990	133.33	73.0988	2.46622e-5
0.0117928	0.0145481	1.23365	10.0001	0.151752	501.944	133.08	71.2389	2.45632e-5
0.0119024	0.0147019	1.23521	10.0001	0.155530	508.639	132.87	71.0398	2.48828e-5
0.0122917	0.0140069	1.13954	10.0001	0.151333	515.465	132.60	68.7750	2.50489e-5
0.0126193	0.0144379	1.14411	10.0001	0.154237	522.268	132.37	68.2251	2.46745e-5
0.0127939	0.0161589	1.26301	10.0001	0.168444	529.028	132.14	69.8094	2.43331e-5
0.0130189	0.0158867	1.22028	10.0001	0.171127	535.860	131.97	68.7813	2.49717e-5
0.0126951	0.0163500	1.28790	10.0001	0.174509	542.750	131.70	70.3319	2.49956e-5
0.0128970	0.0167995	1.30260	10.0001	0.178010	549.547	131.46	70.2090	2.47976e-5
0.0131716	0.0170717	1.29610	10.0001	0.181600	556.459	131.26	69.6846	2.48102e-5
0.0139573	0.0169771	1.21636	10.0001	0.183270	563.298	131.03	67.2872	2.47652e-5
0.0142797	0.0187535	1.31330	10.0001	0.197516	570.081	130.79	68.3902	2.43515e-5
0.0149055	0.0192082	1.28867	10.0001	0.206508	576.956	130.59	67.2513	2.46583e-5
0.0157174	0.0187842	1.19511	10.0001	0.207508	583.736	130.38	64.7320	2.48446e-5
0.0159801	0.0187534	1.17355	10.0001	0.208478	590.618	130.12	64.0434	2.48580e-5
0.0148320	0.0199258	1.34343	10.0001	0.216140	596.732	129.93	68.1721	2.50424e-5
0.0161808	0.0192638	1.19053	10.0001	0.212590	603.028	129.70	64.1576	2.46996e-5
0.0162825	0.0205910	1.26461	10.0001	0.224085	609.958	129.45	65.3902	2.46062e-5
0.0165587	0.0212225	1.28165	10.0001	0.232300	616.717	129.22	65.4192	2.47548e-5
0.0169763	0.0218294	1.28588	10.0001	0.238673	623.536	129.02	65.1162	2.46666e-5
0.0180649	0.0225678	1.24926	10.0001	0.248180	629.864	128.83	63.5774	2.44930e-5
0.0183607	0.0234831	1.27899	10.0001	0.259560	636.648	128.55	63.8902	2.46853e-5
0.0181067	0.0242381	1.33862	10.0001	0.267485	643.446	128.39	65.0904	2.48922e-5
0.0186492	0.0244720	1.31223	10.0001	0.270554	650.293	128.14	64.2599	2.47655e-5
0.0191466	0.0239840	1.25265	10.0001	0.270643	657.053	127.89	62.8573	2.49728e-5
0.0192041	0.0257529	1.34101	10.0001	0.282694	663.968	127.72	64.3735	2.46141e-5
0.0209478	0.0250371	1.19521	10.0001	0.285126	670.242	127.45	60.6185	2.46789e-5
0.0206580	0.0261343	1.26509	10.0001	0.295292	677.066	127.24	62.1513	2.48451e-5
0.0229229	0.0260784	1.13766	10.0001	0.300573	683.840	126.96	58.3549	2.44034e-5
0.0226750	0.0274755	1.21171	10.0001	0.316827	690.696	126.75	60.0605	2.48509e-5
0.0219591	0.0298578	1.35970	10.0001	0.333166	697.493	126.55	63.1597	2.47605e-5
0.0233635	0.0301687	1.29127	10.0001	0.340858	704.370	126.33	61.3063	2.46497e-5
0.0220116	0.0306031	1.39031	10.0001	0.346223	711.174	126.07	63.6459	2.52121e-5
0.0244930	0.0307793	1.25666	10.0001	0.349204	718.087	125.87	60.1786	2.44784e-5
0.0244366	0.0308419	1.26212	10.0001	0.356944	724.914	125.62	60.3080	2.50030e-5
0.0262838	0.0342602	1.30347	10.0001	0.381283	731.762	125.45	60.4365	2.40736e-5
0.0271873	0.0326098	1.19945	10.0001	0.387496	738.489	125.19	58.0505	2.50756e-5
0.0261524	0.0397533	1.52006	10.0001	0.428647	745.311	124.94	64.1010	2.41230e-5
0.0287201	0.0366737	1.27693	10.0001	0.428110	751.572	124.79	59.1904	2.49337e-5
0.0289943	0.0386712	1.33375	10.0001	0.443022	758.503	124.56	60.2032	2.47240e-5
0.0297912	0.0373400	1.25339	10.0001	0.440376	765.212	124.32	58.4341	2.49907e-5
0.0301127	0.0375400	1.24665	10.0001	0.443056	772.070	124.05	58.2146	2.49503e-5
0.0318170	0.0407359	1.28032	10.0001	0.467033	778.858	123.88	58.4954	2.43090e-5
0.0296348	0.0427958	1.44411	10.0001	0.489553	785.826	123.62	61.9685	2.51114e-5
0.0329692	0.0440100	1.33489	10.0001	0.500241	792.599	123.37	59.3114	2.43101e-5
0.0355649	0.0435949	1.22579	10.0001	0.517042	799.456	123.14	56.6280	2.46338e-5
0.0324509	0.0428850	1.32154	10.0001	0.513598	806.271	122.91	59.1647	2.55773e-5
0.0338585	0.0449164	1.32659	10.0001	0.517191	813.102	122.71	58.9806	2.45407e-5
0.0367342	0.0490893	1.33634	10.0001	0.556775	820.045	122.47	58.6675	2.40947e-5
0.0347349	0.0499466	1.43794	10.0001	0.579862	826.887	122.22	60.8250	2.52108e-5
0.0381505	0.0505185	1.32419	10.0001	0.583713	833.065	122.06	58.2174	2.44269e-5
0.0402395	0.0480533	1.19418	10.0001	0.587062	839.881	121.80	55.2065	2.49535e-5
0.0403171	0.0514040	1.27499	10.0001	0.608902	846.708	121.59	56.9325	2.46879e-5
0.0448750	0.0535155	1.19255	10.0001	0.637512	853.420	121.36	54.6038	2.41524e-5
0.0420324	0.0570092	1.35631	10.0001	0.674993	860.299	121.15	58.3188	2.50596e-5
0.0463684	0.0611508	1.31880	10.0001	0.706057	867.130	120.91	57.1264	2.41183e-5
0.0448999	0.0629547	1.40211	10.0001	0.738460	874.073	120.63	58.8499	2.49672e-5
0.0461389	0.0610914	1.32408	10.0001	0.730096	880.796	120.43	57.2529	2.49987e-5
0.0458629	0.0674902	1.47156	10.0001	0.768860	887.746	120.24	59.9681	2.45285e-5
0.0488133	0.0666321	1.36504	10.0001	0.783034	894.488	119.99	57.7966	2.47306e-5
0.0487089	0.0671893	1.37941	10.0001	0.795445	901.324	119.72	58.0754	2.49901e-5
0.0547965	0.0703410	1.28368	10.0001	0.826528	908.151	119.54	55.7186	2.41469e-5
0.0514974	0.0721481	1.40100	10.0001	0.859895	914.406	119.36	58.2476	2.52049e-5
0.0545702	0.0749212	1.37293	10.0001	0.874534	921.206	119.13	57.5032	2.44848e-5
0.0563053	0.0734784	1.30500	10.0001	0.887225	927.534	118.85	56.0552	2.49129e-5
0.0567100	0.0788894	1.39110	10.0001	0.923975	934.312	118.66	57.7037	2.46217e-5
0.0610210	0.0810600	1.32839	10.0001	0.958256	941.148	118.39	56.2438	2.44462e-5
0.0661333	0.0852628	1.28926	10.0001	1.01392	947.935	118.19	55.1867	2.42836e-5
0.0628286	0.0878351	1.39801	10.0001	1.05297	954.810	117.99	57.4874	2.51423e-5
0.0634319	0.0886739	1.39794	10.0001	1.05313	961.684	117.74	57.4557	2.48987e-5
0.0665230	0.0897884	1.34973	10.0001	1.06967	968.495	117.48	56.3893	2.46753e-5
0.0740640	0.0983316	1.32766	10.0001	1.14717	975.259	117.32	55.6423	2.39515e-5
0.0692698	0.104246	1.50493	10.0001	1.22506	982.089	117.09	59.0848	2.50762e-5
0.0826163	0.0986952	1.19462	10.0001	1.21169	988.995	116.85	52.4841	2.42200e-5
0.0727974	0.107944	1.48280	10.0001	1.28710	995.810	116.62	58.5743	2.53085e-5
0.0775607	0.112538	1.45097	10.0001	1.30626	1002.57	116.41	57.8540	2.44422e-5
0.0820184	0.122378	1.49208	10.0001	1.40202	1009.36	116.13	58.4363	2.42779e-5
0.0786818	0.120658	1.53349	10.0001	1.42748	1016.22	115.88	59.2292	2.52826e-5
0.0862901	0.121800	1.41152	10.0001	1.42978	1023.11	115.70	56.8830	2.44542e-5
0.0911169	0.119381	1.31019	10.0001	1.45585	1029.96	115.54	54.7788	2.47767e-5
0.0920336	0.127639	1.38688	10.0001	1.51981	1036.82	115.26	56.2774	2.46320e-5
0.0838639	0.137199	1.63597	10.0001	1.58967	1043.67	115.00	60.6885	2.51278e-5
0.0888754	0.140777	1.58399	10.0001	1.60996	1050.48	114.79	59.7675	2.45745e-5
0.0947993	0.137360	1.44896	10.0001	1.62538	1057.35	114.54	57.3647	2.47867e-5
0.0964128	0.141365	1.46624	10.0001	1.66798	1064.14	114.39	57.6385	2.47889e-5
0.0990932	0.152667	1.54064	10.0001	1.75331	1071.01	114.07	58.8538	2.44475e-5
0.105762	0.148806	1.40700	10.0001	1.77635	1077.86	113.87	56.3829	2.47266e-5
0.100260	0.159907	1.59492	10.0001	1.85512	1084.68	113.62	59.7030	2.49134e-5
0.111547	0.172212	1.54385	10.0001	1.94845	1091.53	113.45	58.6963	2.40445e-5
0.121398	0.169649	1.39746	10.0001	2.02442	1098.30	113.19	55.9666	2.45975e-5
0.117619	0.180617	1.53561	10.0001	2.11646	1105.17	112.96	58.4736	2.48440e-5
0.132177	0.184954	1.39929	10.0001	2.17526	1112.01	112.74	55.8713	2.42139e-5
0.125151	0.191124	1.52714	10.0001	2.27204	1118.88	112.52	58.2367	2.51400e-5
0.130561	0.195656	1.49858	10.0001	2.28970	1125.64	112.30	57.6885	2.46029e-5
0.126057	0.222130	1.76215	10.0001	2.48614	1132.44	112.04	61.7717	2.45265e-5
0.138597	0.209530	1.51179	10.0001	2.46835	1139.31	111.81	57.8318	2.48027e-5
0.139496	0.221394	1.58710	10.0001	2.56036	1146.11	111.58	59.0646	2.46742e-5
0.165853	0.222176	1.33960	10.0001	2.63316	1153.00	111.37	54.4022	2.39708e-5
0.151474	0.233630	1.54238	10.0001	2.79562	1159.75	111.20	58.2329	2.53053e-5
0.157644	0.255594	1.62134	10.0001	2.89872	1166.67	110.97	59.4513	2.42937e-5
0.182259	0.253071	1.38852	10.0001	2.99872	1173.41	110.69	55.2641	2.42205e-5
0.168667	0.260260	1.54304	10.0001	3.11663	1180.22	110.48	58.1192	2.52923e-5
0.191188	0.281746	1.47366	10.0001	3.23068	1187.18	110.21	56.7943	2.38667e-5
0.186948	0.292745	1.56591	10.0001	3.44484	1193.89	110.06	58.3894	2.49290e-5
0.179325	0.295356	1.64704	10.0001	3.46074	1200.74	109.82	59.7061	2.51642e-5
0.187035	0.317502	1.69755	10.0001	3.57849	1207.57	109.56	60.4132	2.43816e-5
0.194635	0.331639	1.70390	10.0001	3.76127	1214.43	109.34	60.4679	2.45460e-5
0.219935	0.336907	1.53185	10.0001	3.88394	1221.20	109.10	57.6754	2.42333e-5
0.212486	0.327890	1.54311	10.0001	3.94204	1228.01	108.84	57.8942	2.53330e-5
0.217384	0.375067	1.72536	10.0001	4.16875	1234.93	108.68	60.6798	2.41069e-5
0.222326	0.370947	1.66848	10.0001	4.30206	1241.01	108.43	59.8350	2.49425e-5
0.256632	0.382900	1.49202	10.0001	4.41516	1247.80	108.22	56.8679	2.40223e-5
0.250642	0.389649	1.55461	10.0001	4.62959	1254.57	108.01	57.9528	2.50535e-5
0.259071	0.430599	1.66209	10.0001	4.86688	1261.35	107.74	59.6249	2.42591e-5
0.273199	0.450486	1.64893	10.0001	5.14441	1268.17	107.55	59.3899	2.44510e-5
0.270448	0.447522	1.65474	10.0001	5.23886	1274.94	107.30	59.4848	2.50885e-5
0.295489	0.477173	1.61486	10.0001	5.41132	1281.75	107.12	58.8130	2.41360e-5
0.323188	0.477224	1.47662	10.0001	5.63177	1288.75	106.85	56.4433	2.44673e-5
0.341821	0.496183	1.45159	10.0001	5.88390	1294.96	106.67	55.9587	2.44465e-5
0.330620	0.564881	1.70855	10.0001	6.40745	1301.79	106.40	60.1594	2.44797e-5
0.328549	0.577935	1.75905	10.0001	6.62019	1308.72	106.18	60.8770	2.48967e-5
0.368967	0.562500	1.52453	10.0001	6.58543	1314.78	105.95	57.2074	2.44850e-5
0.358217	0.591755	1.65195	10.0001	6.88675	1321.50	105.78	59.2777	2.48919e-5
0.414652	0.636719	1.53555	10.0001	7.21589	1328.34	105.51	57.3381	2.37400e-5
0.362629	0.650268	1.79320	10.0001	7.64950	1334.49	105.31	61.2919	2.56718e-5
0.423775	0.661827	1.56174	10.0001	7.55144	1341.32	105.08	57.7664	2.40160e-5
0.436110	0.703819	1.61386	10.0001	8.11425	1348.17	104.87	58.5950	2.44824e-5
0.467244	0.730788	1.56404	10.0001	8.46006	1354.94	104.67	57.7623	2.43664e-5
0.530363	0.752731	1.41928	10.0001	8.87036	1361.87	104.40	55.1543	2.40673e-5
0.513514	0.824145	1.60491	10.0001	9.60721	1368.64	104.19	58.3875	2.47055e-5
0.512404	0.821703	1.60362	10.0001	9.70887	1375.40	103.95	58.3678	2.50360e-5
0.531619	0.833314	1.56750	10.0001	9.77706	1382.31	103.72	57.7692	2.46984e-5
0.519978	0.876962	1.68654	10.0001	10.1435	1389.16	103.53	59.6350	2.48355e-5
0.586948	0.957271	1.63093	10.0001	10.6958	1395.97	103.28	58.7493	2.37741e-5
0.629540	0.984389	1.56366	10.0001	11.4318	1402.77	102.99	57.6478	2.44168e-5
0.642658	1.02694	1.59796	10.0001	11.9535	1409.74	102.79	58.1994	2.46220e-5
0.669206	1.06831	1.59638	10.0001	12.3851	1416.41	102.61	58.1615	2.45140e-5
0.665630	1.08021	1.62284	10.0001	12.6912	1422.71	102.37	58.5828	2.49587e-5
0.717726	1.21192	1.68856	10.0001	13.4630	1429.49	102.19	59.5609	2.38408e-5
0.784463	1.17183	1.49380	10.0001	13.9300	1436.37	101.90	56.3891	2.46471e-5
0.821999	1.21826	1.48207	10.0001	14.4179	1443.26	101.69	56.1683	2.44746e-5
0.804664	1.24304	1.54479	10.0001	14.8533	1450.03	101.53	57.2609	2.50221e-5
0.839356	1.35470	1.61398	10.0001	15.4761	1456.81	101.25	58.3781	2.42180e-5
0.858291	1.42841	1.66425	10.0001	16.3960	1463.65	101.09	59.1493	2.45328e-5
0.933808	1.46413	1.56792	10.0001	16.9427	1470.42	100.82	57.6078	2.43291e-5
0.985864	1.50995	1.53160	10.0001	17.6890	1477.46	100.54	56.9860	2.44619e-5
1.07212	1.52936	1.42648	10.0001	18.2495	1484.16	100.29	55.0847	2.43687e-5
1.05388	1.63139	1.54799	10.0001	19.2665	1491.00	100.12	57.2475	2.47339e-5
1.08085	1.68049	1.55478	10.0001	19.7548	1497.86	99.92	57.3553	2.46497e-5
1.11649	1.80854	1.61984	10.0001	20.7471	1504.65	99.60	58.4019	2.43342e-5
1.22493	1.78994	1.46126	10.0001	21.2743	1511.52	99.44	55.6983	2.44553e-5
1.24674	1.91827	1.53863	10.0001	22.4527	1518.33	99.21	57.0524	2.44648e-5
1.29356	1.97874	1.52969	10.0001	23.3016	1525.24	98.96	56.8926	2.45712e-5
1.45359	2.09504	1.44129	10.0001	24.4110	1532.03	98.77	55.2957	2.38665e-5
1.51119	2.08203	1.37775	10.0001	25.5437	1538.82	98.53	54.0740	2.47553e-5
1.48321	2.28256	1.53893	10.0001	26.8365	1545.60	98.28	57.0211	2.45746e-5
1.63743	2.30985	1.41065	10.0001	27.5364	1552.39	98.04	54.6957	2.42451e-5
1.61474	2.47593	1.53332	10.0001	29.2482	1559.27	97.83	56.9087	2.46632e-5
1.72775	2.60306	1.50662	10.0001	30.3621	1565.55	97.65	56.4352	2.42239e-5
1.76408	2.68604	1.52263	10.0001	31.7905	1572.30	97.39	56.7081	2.46578e-5
1.90427	2.75060	1.44444	10.0001	32.6300	1579.11	97.16	55.3000	2.43142e-5
1.99238	2.96386	1.48759	10.0001	34.6701	1585.72	96.97	56.0721	2.41991e-5
2.00325	3.03192	1.51350	10.0001	36.1718	1592.62	96.72	56.5250	2.48123e-5
2.19159	3.18862	1.45494	10.0001	37.3148	1599.47	96.47	55.4651	2.40443e-5
2.30737	3.23866	1.40362	10.0001	39.1155	1606.23	96.28	54.4934	2.45227e-5
2.41009	3.49826	1.45150	10.0001	41.2102	1613.06	96.01	55.3829	2.41862e-5
2.47358	3.68225	1.48863	10.0001	43.5411	1619.94	95.79	56.0465	2.44720e-5
2.60002	3.72233	1.43165	10.0001	44.7402	1626.80	95.59	54.9999	2.45679e-5
2.82112	3.89222	1.37967	10.0001	46.4606	1633.55	95.33	53.9880	2.40998e-5
2.82683	4.08612	1.44548	10.0001	49.1430	1640.38	95.12	55.2387	2.46623e-5
2.97877	4.20446	1.41148	10.0001	50.4564	1647.18	94.87	54.5908	2.44199e-5
3.17683	4.46710	1.40615	10.0001	52.9882	1654.06	94.66	54.4751	2.41085e-5
3.25753	4.66534	1.43217	10.0001	55.9354	1660.78	94.41	54.9607	2.45171e-5
3.39810	4.90097	1.44227	10.0001	58.2091	1667.12	94.25	55.1383	2.43432e-5
3.47097	5.05708	1.45696	10.0001	60.5496	1673.91	93.99	55.4027	2.46215e-5
3.58675	5.28378	1.47314	10.0001	62.5895	1680.79	93.80	55.6870	2.44433e-5
3.68717	5.55917	1.50771	10.0001	65.3339	1687.57	93.58	56.2900	2.44298e-5
3.91881	5.70914	1.45686	10.0001	67.6167	1694.45	93.30	55.3708	2.43598e-5
4.13378	5.92904	1.43429	10.0001	70.4707	1700.62	93.11	54.9420	2.43252e-5
4.24495	6.33256	1.49178	10.0001	74.2863	1707.54	92.88	55.9746	2.43117e-5
4.53535	6.54787	1.44374	10.0001	77.4256	1714.38	92.65	55.0916	2.42564e-5
4.60936	6.81938	1.47946	10.0001	81.0487	1721.13	92.47	55.7333	2.45710e-5
4.87580	7.11409	1.45906	10.0001	83.8160	1727.77	92.20	55.3505	2.42536e-5
5.10776	7.44829	1.45823	10.0001	87.8974	1734.62	91.97	55.3214	2.42948e-5
5.27046	7.88523	1.49612	10.0001	92.3900	1741.38	91.76	55.9861	2.43172e-5
5.59218	8.11392	1.45094	10.0001	96.0057	1748.19	91.57	55.1599	2.43257e-5
5.77784	8.51017	1.47290	10.0001	100.395	1755.02	91.28	55.5451	2.43711e-5
6.03256	8.95011	1.48364	10.0001	104.865	1761.83	91.10	55.7208	2.42641e-5
6.32656	9.38960	1.48416	10.0001	109.905	1768.64	90.89	55.7126	2.42463e-5
6.75380	9.83950	1.45688	10.0001	115.183	1775.60	90.64	55.2004	2.41146e-5
6.98328	10.3143	1.47700	10.0001	121.378	1782.37	90.42	55.5478	2.43488e-5
7.29691	10.8269	1.48376	10.0001	126.691	1789.23	90.18	55.6492	2.42524e-5
7.63859	11.4934	1.50466	10.0001	133.251	1796.03	89.98	55.9939	2.41363e-5
8.00338	12.0979	1.51160	10.0001	140.369	1802.84	89.70	56.0922	2.41967e-5
8.50114	12.7429	1.49896	10.0001	147.484	1809.61	89.48	55.8457	2.40802e-5
8.95306	13.3850	1.49502	10.0001	155.521	1816.43	89.25	55.7517	2.41632e-5
9.33004	14.1196	1.51334	10.0001	163.605	1823.30	89.02	56.0457	2.41924e-5
9.86593	14.8695	1.50715	10.0001	171.661	1830.12	88.78	55.9093	2.40817e-5
10.3239	15.5937	1.51045	10.0001	180.623	1836.92	88.59	55.9398	2.41849e-5
10.7345	16.5352	1.54037	10.0001	189.765	1843.75	88.33	56.4201	2.41108e-5
11.3566	17.2783	1.52144	10.0001	198.973	1850.60	88.17	56.0677	2.41118e-5
12.0128	18.1995	1.51501	10.0001	208.934	1857.40	87.89	55.9220	2.40175e-5
12.5900	19.1230	1.51890	10.0001	220.041	1864.16	87.65	55.9553	2.41001e-5
13.2335	20.1273	1.52093	10.0001	230.893	1871.06	87.42	55.9533	2.40471e-5
13.8862	21.0388	1.51508	10.0001	242.322	1877.83	87.26	55.8183	2.41232e-5
14.6229	22.0959	1.51105	10.0001	253.627	1884.62	86.99	55.7092	2.40346e-5
15.2366	23.3224	1.53069	10.0001	266.698	1891.51	86.74	56.0039	2.40485e-5
16.2432	24.5467	1.51119	10.0001	279.829	1898.34	86.52	55.6219	2.38953e-5
17.1019	25.8365	1.51074	10.0001	295.415	1905.16	86.32	55.5669	2.39780e-5
17.9568	26.9307	1.49975	10.0001	310.114	1911.37	86.03	55.3344	2.41077e-5
18.7827	28.4292	1.51359	10.0001	324.473	1917.66	85.87	55.5222	2.39751e-5
19.8909	29.9258	1.50450	10.0001	340.967	1924.64	85.66	55.3091	2.39066e-5
20.9887	31.4149	1.49676	10.0001	359.051	1931.42	85.42	55.1188	2.39604e-5
22.2793	33.1170	1.48644	10.0001	377.313	1938.19	85.21	54.8743	2.38543e-5
23.6115	34.9655	1.48087	10.0001	398.238	1945.03	84.96	54.7079	2.38380e-5
25.0168	36.7067	1.46728	10.0001	420.107	1951.88	84.72	54.4003	2.39082e-5
26.4719	38.6031	1.45827	10.0001	441.897	1958.64	84.55	54.1678	2.38864e-5
28.0515	40.5868	1.44686	10.0001	465.039	1965.46	84.26	53.8870	2.38748e-5
29.7856	42.7903	1.43661	10.0001	489.690	1972.29	84.07	53.6177	2.38166e-5
31.5091	44.9049	1.42514	10.0001	516.493	1979.09	83.89	53.3271	2.39014e-5
33.4693	47.2242	1.41097	10.0001	542.803	1986.01	83.58	52.9755	2.38367e-5
35.7407	49.9164	1.39662	10.0001	572.139	1992.83	83.37	52.6040	2.37227e-5
38.1941	52.4592	1.37349	10.0001	605.441	1999.62	83.16	52.0607	2.37862e-5
40.4509	55.1745	1.36399	10.0001	638.915	2006.43	82.93	51.7763	2.38447e-5
43.0129	57.8540	1.34504	10.0001	672.276	2013.21	82.74	51.3002	2.38492e-5
45.6951	60.6534	1.32735	10.0001	707.125	2019.94	82.48	50.8395	2.38553e-5
48.6485	63.7337	1.31009	10.0001	743.581	2026.69	82.27	50.3722	2.38055e-5
51.4768	66.7735	1.29716	10.0001	783.349	2033.50	82.04	49.9934	2.38932e-5
55.1377	70.1341	1.27198	10.0001	822.158	2040.29	81.80	49.3347	2.37552e-5
58.4934	73.2307	1.25195	10.0001	867.497	2047.19	81.55	48.7874	2.39118e-5
62.3312	76.6314	1.22942	10.0001	909.416	2054.00	81.29	48.1648	2.38425e-5
66.0812	80.0917	1.21202	10.0001	955.972	2060.87	81.14	47.6482	2.38993e-5
70.4609	83.7800	1.18903	10.0001	1002.37	2067.57	80.88	46.9864	2.38370e-5
74.5805	87.3123	1.17071	10.0001	1053.55	2074.42	80.65	46.4312	2.39485e-5
79.1852	90.8757	1.14763	10.0001	1102.06	2081.23	80.44	45.7506	2.39335e-5
84.1664	94.7278	1.12548	10.0001	1153.43	2088.05	80.19	45.0720	2.39026e-5
88.7886	98.1341	1.10526	10.0001	1208.34	2094.23	80.03	44.4462	2.40454e-5
94.0491	102.207	1.08674	10.0001	1258.49	2101.19	79.80	43.8345	2.39446e-5
100.070	106.212	1.06138	10.0001	1316.24	2108.02	79.48	43.0339	2.39248e-5
106.377	110.409	1.03790	10.0001	1377.62	2114.76	79.30	42.2636	2.39280e-5
111.790	113.886	1.01876	10.0001	1441.16	2121.03	79.13	41.6236	2.41303e-5
118.104	117.953	0.998726	10.0001	1495.20	2127.89	78.90	40.9308	2.40297e-5
124.842	122.283	0.979502	10.0001	1557.76	2134.73	78.63	40.2432	2.40135e-5
132.503	126.351	0.953571	10.0001	1623.88	2141.67	78.43	39.3563	2.40057e-5
139.750	130.236	0.931922	10.0001	1693.15	2147.83	78.16	38.5874	2.40974e-5
148.153	134.537	0.908096	10.0001	1758.85	2154.62	77.97	37.7254	2.40156e-5
156.269	138.662	0.887328	10.0001	1833.00	2161.50	77.77	36.9502	2.40915e-5
164.480	142.587	0.866892	10.0001	1904.00	2168.36	77.53	36.1804	2.41362e-5
174.027	146.866	0.843927	10.0001	1974.17	2175.11	77.31	35.3061	2.40615e-5
183.143	150.875	0.823809	10.0001	2053.22	2182.05	77.09	34.5201	2.41454e-5
192.521	154.793	0.804033	10.0001	2127.83	2188.78	76.82	33.7376	2.41698e-5
203.140	158.769	0.781574	10.0001	2203.03	2195.67	76.60	32.8492	2.41259e-5
214.371	162.816	0.759503	10.0001	2284.99	2202.51	76.43	31.9579	2.41222e-5
225.901	166.626	0.737604	10.0001	2370.06	2209.27	76.17	31.0660	2.41540e-5
237.791	170.595	0.717417	10.0001	2455.05	2216.13	75.90	30.2193	2.41630e-5
249.307	173.751	0.696934	10.0001	2541.91	2222.98	75.70	29.3720	2.42512e-5
259.601	176.622	0.680359	10.0001	2622.02	2229.20	75.52	28.6689	2.43505e-5
272.816	179.958	0.659630	10.0001	2693.87	2236.13	75.24	27.7860	2.42148e-5
285.970	183.114	0.640325	10.0001	2783.32	2243.03	75.00	26.9509	2.42548e-5
297.798	185.953	0.624425	10.0001	2870.69	2249.82	74.83	26.2485	2.43507e-5
310.486	188.166	0.606037	10.0001	2948.66	2256.58	74.56	25.4564	2.43578e-5
323.111	190.122	0.588410	10.0001	3028.24	2263.54	74.39	24.6912	2.43891e-5
336.681	192.225	0.570942	10.0001	3105.92	2270.27	74.13	23.9199	2.43637e-5
349.665	193.957	0.554694	10.0001	3188.54	2277.04	73.92	23.2006	2.44179e-5
361.961	195.330	0.539644	10.0001	3265.93	2283.29	73.68	22.5338	2.44733e-5
376.194	196.998	0.523662	10.0001	3338.07	2290.20	73.45	21.8132	2.44067e-5
389.708	198.343	0.508953	10.0001	3420.78	2297.00	73.23	21.1488	2.44593e-5
401.152	199.307	0.496837	10.0001	3497.70	2303.31	73.00	20.6007	2.45579e-5
414.723	199.907	0.482026	10.0001	3562.17	2310.15	72.78	19.9387	2.45025e-5
428.865	200.897	0.468439	10.0001	3636.18	2316.99	72.55	19.3161	2.44877e-5
442.054	200.976	0.454641	10.0001	3713.58	2323.82	72.29	18.7003	2.45517e-5
455.564	201.221	0.441696	10.0001	3782.86	2330.82	72.12	18.1140	2.45491e-5
469.171	200.730	0.427840	10.0001	3853.72	2337.53	71.90	17.4982	2.45697e-5
482.823	199.924	0.414073	10.0001	3922.49	2344.44	71.66	16.8882	2.45827e-5
496.709	199.499	0.401643	10.0001	3990.30	2351.27	71.39	16.3273	2.45799e-5
510.529	199.057	0.389904	10.0001	4059.94	2358.14	71.18	15.7949	2.45921e-5
524.601	198.601	0.378576	10.0001	4128.69	2364.97	70.99	15.2788	2.45945e-5
538.025	197.622	0.367310	10.0001	4198.03	2371.68	70.77	14.7734	2.46289e-5
551.704	196.867	0.356834	10.0001	4262.50	2378.58	70.50	14.2980	2.46272e-5
564.912	195.142	0.345437	10.0001	4328.26	2385.33	70.28	13.7959	2.46595e-5
578.590	193.247	0.333996	10.0001	4389.11	2392.28	70.10	13.2921	2.46545e-5
592.699	191.825	0.323647	10.0001	4451.60	2399.04	69.85	12.8285	2.46448e-5
13.1080	-79.0316	-6.02925	10.0001	4522.46	2405.89	69.78	-77.7008	1.41745e-4

[step]
Temperature ramp - 4
Storage modulus	Loss modulus	Tan(delta)	Angular frequency	Oscillation torque	Step time	Temperature	Raw phase	Oscillation displacement
MPa	MPa		rad/s	µN.m	s	°C	°	rad
653.624	188.510	0.288408	10.0001	3665.39	6.28094	70.21	11.2078	1.91030e-5
78.1387	26.0712	0.333653	10.0001	4792.33	13.0793	70.61	17.5379	1.51971e-4
512.419	224.357	0.437840	10.0001	855.831	19.8612	70.88	17.4502	5.08885e-6
605.026	221.564	0.366205	10.0001	4213.56	26.6332	71.11	14.2547	2.27124e-5
584.870	222.655	0.380691	10.0001	4634.99	33.4924	71.34	14.8992	2.54857e-5
576.686	232.934	0.403919	10.0001	4547.64	40.3507	71.52	15.7568	2.50792e-5
558.950	227.923	0.407769	10.0001	4527.82	47.1944	71.73	16.0282	2.55082e-5
556.282	239.237	0.430064	10.0001	4441.44	53.8889	71.98	16.8039	2.49268e-5
543.549	234.337	0.431124	10.0001	4453.43	60.7213	72.22	16.9480	2.54093e-5
528.733	251.129	0.474965	10.0001	4381.18	67.5609	72.43	18.5322	2.51277e-5
518.918	250.102	0.481969	10.0001	4356.78	74.3608	72.69	18.8540	2.52696e-5
487.036	236.458	0.485504	10.0001	4307.35	81.2302	72.90	19.2895	2.61588e-5
410.213	197.224	0.480784	10.0001	4105.12	88.1512	73.15	19.9447	2.84904e-5
394.539	198.318	0.502659	10.0001	3600.63	94.9322	73.36	20.8767	2.55572e-5
377.308	197.530	0.523525	10.0001	3520.43	101.773	73.60	21.7946	2.56801e-5
360.726	194.268	0.538546	10.0001	3425.09	108.513	73.83	22.5122	2.57456e-5
347.515	190.761	0.548928	10.0001	3323.98	115.410	74.05	23.0360	2.56418e-5
334.730	188.153	0.562104	10.0001	3239.02	122.253	74.26	23.6528	2.56213e-5
324.115	186.045	0.574008	10.0001	3159.03	129.117	74.51	24.2002	2.55292e-5
312.334	186.135	0.595950	10.0001	3092.26	135.868	74.75	25.0987	2.55265e-5
298.099	185.222	0.621341	10.0001	3026.87	142.718	74.93	26.1445	2.56881e-5
285.272	183.140	0.641984	10.0001	2943.92	149.524	75.12	27.0154	2.56887e-5
270.732	179.334	0.662406	10.0001	2863.10	156.398	75.38	27.9094	2.58700e-5
257.223	173.839	0.675833	10.0001	2764.45	163.132	75.71	28.5708	2.59257e-5
244.773	169.699	0.693290	10.0001	2663.34	169.998	75.89	29.3453	2.58542e-5
234.522	166.721	0.710897	10.0001	2573.61	176.741	76.07	30.0852	2.57114e-5
223.006	164.864	0.739284	10.0001	2500.96	183.575	76.31	31.1758	2.57537e-5
210.777	161.057	0.764111	10.0001	2425.54	190.449	76.52	32.1711	2.59308e-5
199.151	156.975	0.788217	10.0001	2336.32	197.249	76.77	33.1309	2.59514e-5
188.264	152.474	0.809897	10.0001	2248.35	204.101	77.04	34.0038	2.59724e-5
178.128	148.094	0.831388	10.0001	2161.79	211.071	77.23	34.8544	2.59604e-5
168.569	143.693	0.852430	10.0001	2079.44	217.821	77.43	35.6790	2.59703e-5
159.096	139.206	0.874977	10.0001	1999.60	224.635	77.68	36.5415	2.60167e-5
149.972	134.945	0.899800	10.0001	1919.25	231.500	77.94	37.4547	2.60214e-5
140.998	130.432	0.925066	10.0001	1841.50	238.186	78.17	38.3728	2.60838e-5
133.059	125.944	0.946530	10.0001	1762.75	245.023	78.33	39.1592	2.60475e-5
125.381	121.700	0.970645	10.0001	1689.57	251.886	78.61	40.0038	2.60538e-5
117.970	117.486	0.995899	10.0001	1618.88	258.715	78.80	40.8651	2.60807e-5
111.103	113.424	1.02089	10.0001	1549.60	265.455	79.04	41.6975	2.60661e-5
104.017	108.863	1.04659	10.0001	1483.64	272.388	79.25	42.5499	2.62010e-5
97.6072	104.570	1.07133	10.0001	1413.20	279.183	79.47	43.3522	2.61646e-5
91.7639	100.069	1.09051	10.0001	1347.71	285.965	79.71	44.0020	2.61902e-5
86.2630	95.9225	1.11198	10.0001	1283.93	292.777	79.94	44.6910	2.61697e-5
81.4995	92.2137	1.13146	10.0001	1224.26	299.592	80.17	45.3051	2.60773e-5
76.7167	88.7097	1.15633	10.0001	1171.42	306.439	80.40	46.0358	2.61048e-5
71.8996	85.0823	1.18335	10.0001	1119.52	313.296	80.65	46.8078	2.61850e-5
67.1075	81.1602	1.20941	10.0001	1066.19	320.072	80.92	47.5514	2.62970e-5
63.0542	77.7348	1.23283	10.0001	1011.19	326.943	81.07	48.2041	2.61725e-5
59.5880	74.3369	1.24752	10.0001	963.374	333.770	81.37	48.6502	2.61364e-5
56.2737	71.0858	1.26322	10.0001	918.914	340.629	81.53	49.1099	2.61443e-5
53.2203	67.9588	1.27693	10.0001	876.211	347.472	81.82	49.5172	2.61317e-5
49.9526	65.0193	1.30162	10.0001	835.864	354.258	82.00	50.1486	2.61884e-5
46.9453	62.1047	1.32291	10.0001	795.444	361.181	82.30	50.6970	2.61979e-5
44.2438	59.4241	1.34310	10.0001	756.741	367.867	82.51	51.2058	2.61415e-5
41.6581	56.6462	1.35979	10.0001	721.064	374.689	82.65	51.6406	2.62037e-5
39.1029	53.7738	1.37519	10.0001	685.148	381.472	82.92	52.0481	2.62873e-5
36.6311	50.9233	1.39016	10.0001	648.657	388.371	83.21	52.4428	2.63373e-5
34.6206	48.3764	1.39733	10.0001	612.944	395.229	83.35	52.6721	2.62085e-5
32.6394	46.1179	1.41295	10.0001	582.137	402.040	83.59	53.0526	2.61753e-5
30.4591	43.7071	1.43494	10.0001	553.210	408.819	83.90	53.5537	2.63395e-5
28.6862	41.5757	1.44933	10.0001	522.361	415.691	84.09	53.8972	2.62040e-5
26.9059	39.3764	1.46349	10.0001	495.484	422.455	84.25	54.2355	2.62954e-5
25.4418	37.4943	1.47373	10.0001	468.480	428.799	84.46	54.4887	2.61430e-5
24.0427	35.6465	1.48264	10.0001	445.310	435.577	84.74	54.7151	2.61625e-5
22.5911	33.6337	1.48880	10.0001	422.383	442.383	85.01	54.8975	2.63066e-5
21.4687	31.7229	1.47763	10.0001	398.078	449.246	85.18	54.7666	2.62080e-5
20.1898	30.2462	1.49810	10.0001	377.216	456.025	85.42	55.1847	2.61376e-5
18.9696	28.7026	1.51309	10.0001	358.011	462.836	85.66	55.5037	2.62020e-5
17.9091	27.2519	1.52168	10.0001	338.829	469.702	85.83	55.7053	2.61449e-5
16.9120	25.7345	1.52167	10.0001	320.892	476.525	86.09	55.7605	2.62028e-5
15.9906	24.4385	1.52830	10.0001	303.393	483.390	86.29	55.9221	2.61069e-5
15.0913	23.1461	1.53374	10.0001	287.630	490.191	86.52	56.0624	2.61423e-5
14.3760	22.0648	1.53483	10.0001	272.468	497.052	86.80	56.1209	2.59725e-5
13.6452	20.8714	1.52958	10.0001	259.232	503.900	87.05	56.0749	2.60865e-5
12.9441	19.8671	1.53484	10.0001	245.807	510.815	87.23	56.2021	2.60000e-5
12.3849	18.9720	1.53186	10.0001	233.866	517.611	87.44	56.1842	2.58802e-5
11.7435	18.0781	1.53941	10.0001	223.360	524.423	87.64	56.3462	2.59675e-5
11.2258	17.2902	1.54022	10.0001	212.676	531.220	87.89	56.3892	2.58482e-5
10.5007	16.3737	1.55928	10.0001	202.869	538.040	88.14	56.7446	2.61190e-5
10.0903	15.4697	1.53313	10.0001	191.135	544.880	88.38	56.3364	2.59094e-5
9.61756	14.7870	1.53750	10.0001	182.073	551.718	88.60	56.4368	2.58342e-5
9.14871	14.0694	1.53785	10.0001	173.603	558.550	88.81	56.4698	2.58827e-5
8.64313	13.3716	1.54708	10.0001	165.065	565.357	88.99	56.6527	2.59325e-5
8.28685	12.7504	1.53863	10.0001	156.679	572.184	89.25	56.5331	2.57684e-5
7.91972	12.1610	1.53554	10.0001	149.638	579.011	89.48	56.5030	2.57800e-5
7.59875	11.7142	1.54159	10.0001	143.304	585.780	89.74	56.6232	2.56535e-5
7.32851	11.1820	1.52583	10.0001	137.427	592.690	89.94	56.3742	2.56926e-5
6.90609	10.6364	1.54015	10.0001	131.436	599.501	90.16	56.6405	2.58979e-5
6.62228	10.1343	1.53033	10.0001	124.735	606.338	90.36	56.4924	2.57407e-5
6.32589	9.52998	1.50650	10.0001	118.495	613.171	90.67	56.1030	2.58747e-5
6.00881	9.06997	1.50945	10.0001	112.434	620.030	90.90	56.1727	2.58071e-5
5.73236	8.71966	1.52113	10.0001	107.333	626.891	91.08	56.3900	2.56828e-5
5.45794	8.22588	1.50714	10.0001	102.224	633.688	91.34	56.1664	2.58516e-5
5.18445	7.86787	1.51759	10.0001	97.1994	640.515	91.52	56.3633	2.57500e-5
4.93068	7.49561	1.52020	10.0001	92.6273	647.302	91.81	56.4238	2.57666e-5
4.63796	7.05671	1.52151	10.0001	87.7789	654.124	91.97	56.4649	2.59391e-5
4.54076	6.88341	1.51591	10.0001	83.7824	660.418	92.20	56.3752	2.53527e-5
4.23514	6.51698	1.53879	10.0001	80.8277	667.144	92.43	56.7845	2.59454e-5
4.14090	6.27500	1.51537	10.0001	76.7167	674.046	92.70	56.3918	2.54546e-5
3.87843	5.98494	1.54314	10.0001	73.8976	680.808	92.91	56.8816	2.58455e-5
3.81635	5.59243	1.46539	10.0001	69.5456	687.621	93.07	55.5321	2.56229e-5
3.56710	5.47141	1.53385	10.0001	67.1973	694.479	93.35	56.7467	2.56577e-5
3.39533	5.12310	1.50886	10.0001	63.7013	701.337	93.58	56.3304	2.58475e-5
3.21036	5.05136	1.57346	10.0001	61.2264	708.090	93.81	57.4318	2.55087e-5
3.14208	4.68449	1.49089	10.0001	58.1343	714.926	94.02	56.0341	2.56990e-5
2.91423	4.50729	1.54665	10.0001	55.5855	721.795	94.26	57.0106	2.58221e-5
2.77724	4.26631	1.53617	10.0001	52.5486	728.623	94.49	56.8447	2.57350e-5
2.60353	4.09552	1.57306	10.0001	50.1157	735.422	94.70	57.4734	2.57440e-5
2.55063	3.92309	1.53809	10.0001	47.7699	742.246	94.94	56.8958	2.54495e-5
2.45390	3.73094	1.52041	10.0001	45.8950	749.123	95.17	56.6026	2.56201e-5
2.38833	3.58601	1.50147	10.0001	43.9959	755.856	95.37	56.2798	2.54548e-5
2.25548	3.45440	1.53156	10.0001	42.4655	762.715	95.59	56.8109	2.56588e-5
2.19362	3.41270	1.55574	10.0001	41.1339	769.452	95.87	57.2237	2.52723e-5
2.02807	3.23047	1.59288	10.0001	39.6573	776.394	96.11	57.8480	2.59133e-5
1.91333	3.03717	1.58738	10.0001	37.1801	783.107	96.29	57.7711	2.58172e-5
1.94278	3.03608	1.56275	10.0001	35.9985	789.923	96.50	57.3650	2.48922e-5
1.77546	2.89495	1.63054	10.0001	35.3291	796.737	96.75	58.4715	2.59281e-5
1.67504	2.65662	1.58601	10.0001	32.7115	803.574	97.01	57.7760	2.59599e-5
1.68875	2.51845	1.49131	10.0001	30.7437	810.477	97.29	56.1710	2.52705e-5
1.50380	2.51423	1.67192	10.0001	30.3165	817.272	97.41	59.1382	2.57901e-5
1.45695	2.33128	1.60011	10.0001	28.3477	824.110	97.66	58.0318	2.57030e-5
1.39344	2.24300	1.60969	10.0001	27.0550	830.854	97.84	58.1937	2.55384e-5
1.30954	2.13776	1.63245	10.0001	25.8615	837.681	98.07	58.5644	2.57125e-5
1.24102	2.09859	1.69102	10.0001	24.9052	844.562	98.36	59.4632	2.54596e-5
1.21694	2.07028	1.70123	10.0001	24.2899	851.440	98.60	59.6174	2.52072e-5
1.17929	1.89252	1.60479	10.0001	23.0509	858.139	98.88	58.1514	2.57648e-5
1.07600	1.85690	1.72575	10.0001	22.1231	865.008	99.02	59.9996	2.56943e-5
1.08937	1.73492	1.59260	10.0001	20.8335	871.801	99.24	57.9738	2.53542e-5
1.01788	1.67496	1.64553	10.0001	20.1616	878.659	99.45	58.8225	2.56446e-5
0.991955	1.57968	1.59249	10.0001	19.0943	885.485	99.80	57.9937	2.55204e-5
0.862934	1.50422	1.74315	10.0001	18.2002	892.305	99.92	60.2995	2.61646e-5
0.898373	1.44516	1.60864	10.0001	17.0622	899.115	100.21	58.2762	2.50006e-5
0.851627	1.42407	1.67218	10.0001	16.9137	905.885	100.42	59.2706	2.54172e-5
0.746018	1.35371	1.81458	10.0001	16.1831	912.801	100.57	61.3143	2.61055e-5
0.754330	1.31008	1.73675	10.0001	15.2429	919.531	100.81	60.2444	2.51440e-5
0.756706	1.22185	1.61470	10.0001	14.6391	925.850	101.05	58.4175	2.54062e-5
0.712595	1.19069	1.67092	10.0001	14.1946	932.737	101.26	59.3002	2.55155e-5
0.658001	1.16492	1.77039	10.0001	13.7291	939.532	101.51	60.7534	2.55937e-5
0.660618	1.12862	1.70843	10.0001	13.1950	946.279	101.76	59.8763	2.51694e-5
0.610469	1.06032	1.73689	10.0001	12.6709	953.116	101.93	60.3089	2.58364e-5
0.624101	1.04683	1.67734	10.0001	12.1890	959.948	102.19	59.4363	2.49526e-5
0.541772	0.963935	1.77923	10.0001	11.6603	966.729	102.43	60.9370	2.63098e-5
0.577753	0.941927	1.63033	10.0001	10.9653	973.611	102.63	58.7452	2.47664e-5
0.555003	0.939775	1.69328	10.0001	11.0479	980.387	102.89	59.7112	2.52610e-5
0.531637	0.831728	1.56447	10.0001	10.2563	987.183	103.07	57.7191	2.59444e-5
0.462932	0.845279	1.82592	10.0001	9.92889	994.026	103.38	61.6192	2.57144e-5
0.460115	0.820382	1.78299	10.0001	9.49974	1000.85	103.62	61.0489	2.52129e-5
0.415680	0.725507	1.74535	10.0001	8.80577	1007.77	103.78	60.5717	2.63031e-5
0.382058	0.730644	1.91239	10.0001	8.38760	1013.86	103.99	62.7913	2.54021e-5
0.430512	0.726228	1.68689	10.0001	8.24371	1020.79	104.20	59.7152	2.43905e-5
0.371525	0.665749	1.79193	10.0001	8.03400	1027.05	104.40	61.2631	2.63259e-5
0.344735	0.603752	1.75135	10.0001	7.22682	1033.92	104.65	60.7446	2.59808e-5
0.358931	0.582727	1.62351	10.0001	6.83673	1040.65	104.91	58.8384	2.49771e-5
0.347764	0.516456	1.48507	10.0001	6.42054	1047.33	105.09	56.5521	2.58074e-5
0.311403	0.543054	1.74389	10.0001	6.34951	1054.12	105.38	60.6957	2.53649e-5
0.315321	0.542839	1.72155	10.0001	6.26110	1060.95	105.56	60.3725	2.49430e-5
0.315925	0.500746	1.58501	10.0001	6.01554	1067.81	105.78	58.2975	2.54264e-5
0.292858	0.505644	1.72659	10.0001	5.93099	1074.61	106.01	60.4877	2.53957e-5
0.271558	0.467914	1.72307	10.0001	5.58573	1081.37	106.20	60.4852	2.58436e-5
0.291743	0.474446	1.62624	10.0001	5.45712	1088.14	106.48	58.9988	2.45273e-5
0.255844	0.445118	1.73980	10.0001	5.34908	1095.14	106.71	60.7615	2.60842e-5
0.251350	0.427548	1.70101	10.0001	5.01185	1101.98	106.90	60.2206	2.53085e-5
0.213177	0.382384	1.79374	10.0001	4.62766	1108.72	107.19	61.6356	2.64904e-5
0.230110	0.404804	1.75917	10.0001	4.51079	1115.60	107.36	61.1073	2.42699e-5
0.214268	0.360021	1.68024	10.0001	4.34442	1122.40	107.61	60.0395	2.60059e-5
0.209974	0.358728	1.70844	10.0001	4.16608	1129.17	107.82	60.4669	2.51350e-5
0.212947	0.348743	1.63769	10.0001	4.08411	1135.44	108.00	59.4053	2.50748e-5
0.192293	0.342494	1.78110	10.0001	4.01473	1142.29	108.26	61.5542	2.56372e-5
0.208184	0.310471	1.49133	10.0001	3.72490	1149.09	108.46	57.0260	2.50363e-5
0.200256	0.297019	1.48319	10.0001	3.62823	1155.93	108.77	56.9186	2.54589e-5
0.189092	0.301084	1.59226	10.0001	3.57359	1162.83	108.99	58.8030	2.52526e-5
0.162529	0.307139	1.88975	10.0001	3.55705	1169.61	109.15	63.1098	2.56908e-5
0.168479	0.313958	1.86348	10.0001	3.50193	1176.36	109.43	62.7487	2.46662e-5
0.177050	0.267021	1.50817	10.0001	3.25798	1183.17	109.63	57.4768	2.55901e-5
0.179164	0.256394	1.43106	10.0001	3.12003	1189.98	109.86	56.0871	2.51204e-5
0.139945	0.276755	1.97761	10.0001	3.20358	1196.81	110.12	64.3066	2.59457e-5
0.142471	0.251846	1.76770	10.0001	2.92584	1203.67	110.34	61.6882	2.54406e-5
0.133984	0.246825	1.84219	10.0001	2.83802	1209.98	110.55	62.7390	2.54211e-5
0.131628	0.245507	1.86516	10.0001	2.78121	1216.75	110.76	63.0493	2.51150e-5
0.133598	0.219082	1.63986	10.0001	2.60039	1223.57	110.94	59.9410	2.55516e-5
0.148630	0.205259	1.38101	10.0001	2.48101	1230.44	111.22	55.3585	2.47342e-5
0.137369	0.214537	1.56176	10.0001	2.54780	1237.29	111.46	58.6770	2.52321e-5
0.123189	0.186407	1.51318	10.0001	2.32394	1244.10	111.67	58.0246	2.63051e-5
0.125562	0.202326	1.61137	10.0001	2.30663	1250.94	111.84	59.5912	2.44546e-5
0.121200	0.186239	1.53663	10.0001	2.25008	1257.69	112.15	58.4436	2.56059e-5
0.125547	0.187696	1.49502	10.0001	2.21034	1264.59	112.37	57.6845	2.47534e-5
0.108740	0.158667	1.45914	10.0001	2.01481	1271.51	112.59	57.2873	2.65742e-5
0.104125	0.167062	1.60443	10.0001	1.93911	1278.21	112.79	59.7832	2.49467e-5
0.0996391	0.159117	1.59694	10.0001	1.88735	1284.47	113.04	59.7457	2.54806e-5
0.0893692	0.144229	1.61386	10.0001	1.74101	1291.37	113.22	60.2195	2.60573e-5
0.0961396	0.153550	1.59715	10.0001	1.73433	1298.16	113.48	59.8166	2.42837e-5
0.0931740	0.155265	1.66640	10.0001	1.79402	1305.06	113.72	60.9214	2.51144e-5
0.0938513	0.142683	1.52031	10.0001	1.70203	1311.79	113.93	58.6220	2.53278e-5
0.0854954	0.142049	1.66148	10.0001	1.66567	1318.64	114.15	61.0239	2.55125e-5
0.0939372	0.126955	1.35149	10.0001	1.54990	1325.46	114.35	55.5468	2.50378e-5
0.0900962	0.127198	1.41180	10.0001	1.54280	1332.38	114.60	56.7924	2.52406e-5
0.0733527	0.118319	1.61302	10.0001	1.44402	1338.60	114.82	60.6575	2.64603e-5
0.0814069	0.121605	1.49379	10.0001	1.39375	1345.56	115.01	58.4831	2.42998e-5
0.0655910	0.108647	1.65644	10.0001	1.32757	1352.30	115.27	61.5982	2.67307e-5
0.0762669	0.115849	1.51899	10.0001	1.29739	1359.20	115.48	59.0661	2.38923e-5
0.0663783	0.0951376	1.43326	10.0001	1.20383	1365.95	115.74	57.9624	2.66764e-5
0.0646100	0.101475	1.57058	10.0001	1.16492	1372.76	115.96	60.3480	2.48119e-5
0.0627132	0.0945557	1.50775	10.0001	1.12751	1379.73	116.16	59.4228	2.55339e-5
0.0664619	0.102553	1.54303	10.0001	1.15743	1386.44	116.41	59.8280	2.42654e-5
0.0619264	0.0874904	1.41281	10.0001	1.08546	1393.23	116.64	57.8062	2.61103e-5
0.0556787	0.0856920	1.53905	10.0001	1.01821	1400.14	116.80	60.3223	2.56752e-5
0.0650717	0.0858533	1.31936	10.0001	1.00712	1406.92	117.09	55.8542	2.41462e-5
0.0588918	0.0773207	1.31293	10.0001	0.975013	1413.75	117.39	56.0546	2.60160e-5
0.0598426	0.0770219	1.28708	10.0001	0.935923	1420.60	117.53	55.4689	2.48953e-5
0.0573861	0.0783386	1.36512	10.0001	0.941250	1427.42	117.79	57.1716	2.51086e-5
0.0487432	0.0755020	1.54897	10.0001	0.904427	1434.26	117.99	60.9738	2.60506e-5
0.0555015	0.0702419	1.26559	10.0001	0.847145	1441.20	118.27	55.2904	2.46561e-5
0.0512297	0.0704001	1.37420	10.0001	0.850713	1448.02	118.45	57.7710	2.54223e-5
0.0536069	0.0706452	1.31784	10.0001	0.841801	1454.74	118.65	56.4994	2.47126e-5
0.0420161	0.0639737	1.52260	10.0001	0.785836	1461.51	118.93	61.2009	2.67703e-5
0.0450033	0.0617607	1.37236	10.0001	0.725518	1468.37	119.20	58.2918	2.48515e-5
0.0446912	0.0614479	1.37494	10.0001	0.725946	1475.28	119.41	58.3724	2.50162e-5
0.0440849	0.0638531	1.44841	10.0001	0.740183	1482.06	119.60	59.7504	2.49031e-5
0.0432194	0.0542167	1.25445	10.0001	0.679513	1488.81	119.87	56.1443	2.58835e-5
0.0396005	0.0573434	1.44805	10.0001	0.668564	1495.63	120.04	60.2670	2.51791e-5
0.0401472	0.0549380	1.36841	10.0001	0.649311	1502.43	120.22	58.7796	2.51380e-5
0.0400199	0.0482039	1.20450	10.0001	0.601551	1509.22	120.51	55.4665	2.55664e-5
0.0396910	0.0528028	1.33035	10.0001	0.614400	1516.15	120.73	58.1188	2.45708e-5
0.0389872	0.0498268	1.27803	10.0001	0.605215	1522.91	120.97	57.1779	2.53850e-5
0.0323571	0.0489532	1.51291	10.0001	0.578437	1529.74	121.21	62.4772	2.60590e-5
0.0365046	0.0482482	1.32170	10.0001	0.557017	1536.57	121.39	58.4233	2.44608e-5
0.0371736	0.0425207	1.14384	10.0001	0.535608	1543.46	121.68	54.5043	2.55021e-5
0.0339953	0.0443949	1.30591	10.0001	0.529553	1550.36	121.86	58.5555	2.53076e-5
0.0343637	0.0424078	1.23409	10.0001	0.511224	1557.15	122.12	57.0246	2.51507e-5
0.0316860	0.0445797	1.40692	10.0001	0.516918	1563.92	122.31	60.8767	2.51913e-5
0.0326866	0.0406184	1.24266	10.0001	0.488041	1570.68	122.57	57.5403	2.52140e-5
0.0319953	0.0388262	1.21350	10.0001	0.470828	1577.50	122.75	57.0710	2.53122e-5
0.0313240	0.0386657	1.23438	10.0001	0.462576	1584.34	123.03	57.6673	2.51386e-5
0.0271880	0.0404501	1.48779	10.0001	0.464814	1591.17	123.19	63.3069	2.55318e-5
0.0285514	0.0396865	1.39000	10.0001	0.452367	1598.00	123.42	61.3294	2.48728e-5
0.0280937	0.0356342	1.26841	10.0001	0.427401	1604.80	123.75	59.1980	2.56200e-5
0.0268214	0.0353347	1.31741	10.0001	0.412873	1611.53	123.89	60.5247	2.52977e-5
0.0238108	0.0340217	1.42884	10.0001	0.394752	1618.37	124.14	63.5028	2.58245e-5
0.0240934	0.0319196	1.32483	10.0001	0.368510	1624.67	124.33	61.6222	2.52617e-5
0.0230467	0.0334387	1.45091	10.0001	0.373271	1631.48	124.58	64.1560	2.49838e-5
0.0248302	0.0345872	1.39295	10.0001	0.383103	1638.35	124.87	62.5326	2.44411e-5
0.0235932	0.0316264	1.34048	10.0001	0.369816	1645.22	125.02	62.1044	2.57037e-5
0.0236635	0.0294025	1.24253	10.0001	0.345137	1652.02	125.21	60.2382	2.53423e-5
0.0235974	0.0289488	1.22678	10.0001	0.337332	1658.88	125.50	59.9502	2.50835e-5
0.0215896	0.0232934	1.07892	10.0001	0.292875	1665.74	125.65	57.6764	2.64234e-5
0.0216036	0.0276555	1.28013	10.0001	0.304207	1672.47	125.91	61.9218	2.41359e-5
0.0187625	0.0270378	1.44106	10.0001	0.306457	1679.30	126.20	66.2232	2.57946e-5
0.0203883	0.0251934	1.23568	10.0001	0.286761	1686.19	126.43	61.7485	2.49346e-5
0.0167618	0.0262271	1.56470	10.0001	0.290335	1692.86	126.60	69.2988	2.57529e-5
0.0182448	0.0236476	1.29613	10.0001	0.265702	1699.80	126.84	64.2732	2.51711e-5
0.0181215	0.0230900	1.27418	10.0001	0.259153	1706.57	127.11	63.9811	2.50816e-5
0.0176444	0.0234116	1.32685	10.0001	0.259956	1713.43	127.31	65.2491	2.50785e-5
0.0164328	0.0232259	1.41339	10.0001	0.256381	1720.21	127.49	67.5811	2.53773e-5
0.0163278	0.0223616	1.36954	10.0001	0.246340	1727.00	127.71	67.0319	2.52234e-5
0.0164921	0.0233143	1.41366	10.0001	0.250881	1734.00	127.96	67.5321	2.47281e-5
0.0162543	0.0214373	1.31887	10.0001	0.239716	1740.79	128.25	66.3154	2.54666e-5
0.0161266	0.0208415	1.29237	10.0001	0.231207	1747.63	128.47	66.0073	2.52039e-5
0.0153401	0.0197553	1.28782	10.0001	0.220366	1754.56	128.63	66.7470	2.54892e-5
0.0149068	0.0196133	1.31574	10.0001	0.214907	1761.29	128.89	67.6696	2.52047e-5
0.0145823	0.0197955	1.35750	10.0001	0.214012	1768.10	129.12	68.6664	2.50441e-5
0.0140286	0.0176181	1.25588	10.0001	0.197050	1775.01	129.40	67.8342	2.57593e-5
0.0139105	0.0187844	1.35038	10.0001	0.199652	1781.13	129.55	69.4024	2.47419e-5
0.0135889	0.0178093	1.31058	10.0001	0.193824	1787.78	129.77	69.2773	2.53157e-5
0.0142203	0.0169165	1.18960	10.0001	0.185536	1794.58	130.03	66.4610	2.50065e-5
0.0125217	0.0173240	1.38351	10.0001	0.186349	1801.38	130.24	71.8735	2.54214e-5
0.0130511	0.0167403	1.28267	10.0001	0.179374	1808.22	130.48	69.6770	2.49887e-5
0.0116049	0.0167340	1.44197	10.0001	0.179189	1815.12	130.67	74.1432	2.56193e-5
0.0130815	0.0155341	1.18748	10.0001	0.167288	1821.92	130.95	68.1437	2.48551e-5
0.0115661	0.0160743	1.38978	10.0001	0.171275	1828.76	131.13	73.6498	2.54243e-5
0.0109243	0.0152250	1.39367	10.0001	0.161400	1835.67	131.39	75.0225	2.54685e-5
0.0122966	0.0142783	1.16116	10.0001	0.152161	1842.42	131.58	69.1240	2.47627e-5
0.0112898	0.0148284	1.31344	10.0001	0.156750	1849.15	131.85	73.3351	2.51842e-5
0.0105689	0.0147248	1.39321	10.0001	0.154735	1855.98	132.07	75.8294	2.53381e-5
0.0111818	0.0132935	1.18885	10.0001	0.141920	1862.82	132.30	71.9541	2.52423e-5
0.0106563	0.0131555	1.23453	10.0001	0.138975	1869.66	132.47	73.8681	2.52374e-5
0.0103174	0.0129757	1.25765	10.0001	0.136144	1876.50	132.72	75.0429	2.52087e-5
9.85963e-3	0.0120380	1.22094	10.0001	0.127046	1883.29	132.96	75.9698	2.54644e-5
0.0101143	0.0123087	1.21696	10.0001	0.126696	1890.17	133.25	75.1480	2.47398e-5
9.23456e-3	0.0117514	1.27254	10.0001	0.123604	1896.98	133.43	78.5333	2.56346e-5
8.89153e-3	0.0124082	1.39551	10.0001	0.125544	1903.78	133.63	80.6614	2.48280e-5
9.37085e-3	0.0116180	1.23980	10.0001	0.119817	1910.57	133.90	77.7610	2.50628e-5
8.84143e-3	0.0111548	1.26165	10.0001	0.115967	1917.31	134.10	79.8815	2.54506e-5
8.87246e-3	0.0108364	1.22135	10.0001	0.111233	1924.24	134.38	79.4342	2.50946e-5
8.05885e-3	0.0108674	1.34851	10.0001	0.111329	1931.00	134.55	83.6599	2.53215e-5
8.32599e-3	0.0103755	1.24616	10.0001	0.105765	1937.84	134.79	81.9084	2.50974e-5
7.63978e-3	0.0101933	1.33425	10.0001	0.104481	1944.59	134.98	85.5770	2.54151e-5
7.91076e-3	9.94468e-3	1.25711	10.0001	0.100372	1951.43	135.23	83.9175	2.49585e-5
7.30609e-3	9.47330e-3	1.29663	10.0001	0.0975115	1958.32	135.45	87.2516	2.55694e-5
7.58275e-3	9.47014e-3	1.24891	10.0001	0.0949174	1965.14	135.70	85.5828	2.48516e-5
7.51614e-3	9.21731e-3	1.22634	10.0001	0.0933599	1972.02	135.92	85.8725	2.51231e-5
7.78965e-3	8.95004e-3	1.14896	10.0001	0.0902759	1978.82	136.17	84.0118	2.49462e-5
6.87635e-3	8.90167e-3	1.29453	10.0001	0.0913950	1985.65	136.43	89.8366	2.55324e-5
7.58203e-3	8.49180e-3	1.11999	10.0001	0.0851029	1992.44	136.56	85.0802	2.48308e-5
6.99797e-3	8.70091e-3	1.24335	10.0001	0.0879332	1999.25	136.82	89.0317	2.51284e-5
6.96972e-3	8.49892e-3	1.21941	10.0001	0.0857867	2006.11	137.08	89.1985	2.50985e-5
6.59488e-3	8.32561e-3	1.26244	10.0001	0.0843693	2012.98	137.25	91.7663	2.51910e-5
6.11614e-3	7.97798e-3	1.30441	10.0001	0.0819284	2019.87	137.54	95.2606	2.54292e-5
5.99707e-3	7.62479e-3	1.27142	10.0001	0.0778260	2026.63	137.74	96.3869	2.52237e-5
6.03133e-3	7.62331e-3	1.26395	10.0001	0.0772768	2033.44	137.93	96.1380	2.50646e-5
6.30311e-3	7.36209e-3	1.16801	10.0001	0.0742972	2040.31	138.23	94.2567	2.50276e-5
5.47248e-3	7.58603e-3	1.38622	10.0001	0.0784898	2047.14	138.44	100.298	2.53150e-5
6.02329e-3	7.08155e-3	1.17570	10.0001	0.0716055	2053.92	138.65	96.6706	2.49771e-5
5.66935e-3	6.80389e-3	1.20012	10.0001	0.0703760	2060.62	138.89	99.8522	2.53428e-5
5.51228e-3	6.59347e-3	1.19614	10.0001	0.0684006	2067.38	139.11	101.475	2.52815e-5
5.14206e-3	6.55363e-3	1.27451	10.0001	0.0687208	2074.27	139.32	104.615	2.52325e-5
5.72897e-3	6.62087e-3	1.15568	10.0001	0.0664443	2081.07	139.53	99.6243	2.46079e-5
5.27212e-3	6.75951e-3	1.28212	10.0001	0.0703739	2087.91	139.80	103.146	2.52113e-5
5.45424e-3	6.36143e-3	1.16633	10.0001	0.0655293	2094.67	140.02	102.384	2.50209e-5
5.24670e-3	5.89648e-3	1.12384	10.0001	0.0623763	2101.53	140.22	105.220	2.53839e-5
5.18419e-3	6.21384e-3	1.19861	10.0001	0.0642181	2108.31	140.50	105.011	2.48215e-5
4.85742e-3	5.98422e-3	1.23197	10.0001	0.0642888	2115.15	140.70	108.428	2.53473e-5
4.52889e-3	5.79845e-3	1.28033	10.0001	0.0634663	2121.91	140.89	111.827	2.52686e-5
4.97587e-3	5.47010e-3	1.09933	10.0001	0.0579179	2128.78	141.14	108.921	2.49075e-5
4.54359e-3	5.65536e-3	1.24469	10.0001	0.0617315	2135.64	141.38	112.195	2.51333e-5
4.31139e-3	5.40175e-3	1.25290	10.0001	0.0606937	2142.46	141.57	115.185	2.52873e-5
4.74069e-3	5.43034e-3	1.14548	10.0001	0.0578370	2149.30	141.80	111.241	2.46886e-5
4.24463e-3	5.19821e-3	1.22466	10.0001	0.0594839	2155.59	142.06	116.629	2.54384e-5
4.46515e-3	4.92206e-3	1.10233	10.0001	0.0550408	2162.44	142.26	115.861	2.50238e-5
4.45869e-3	5.09017e-3	1.14163	10.0001	0.0562303	2168.62	142.48	115.172	2.48622e-5
4.30983e-3	4.81183e-3	1.11648	10.0001	0.0551240	2175.61	142.70	117.844	2.51922e-5
4.58722e-3	4.32524e-3	0.942889	10.0001	0.0493348	2182.35	142.92	117.624	2.51307e-5
3.74586e-3	4.20095e-3	1.12149	10.0001	0.0538799	2189.17	143.13	126.473	2.56490e-5
4.25132e-3	4.55008e-3	1.07027	10.0001	0.0514320	2195.99	143.40	119.742	2.44069e-5
4.46830e-3	4.31244e-3	0.965119	10.0001	0.0493644	2202.82	143.61	118.923	2.49163e-5
3.87808e-3	4.78477e-3	1.23380	10.0001	0.0567532	2209.61	143.87	121.848	2.50532e-5
3.61846e-3	4.60247e-3	1.27194	10.0001	0.0571866	2216.39	144.04	125.083	2.52856e-5
3.71265e-3	4.47021e-3	1.20405	10.0001	0.0547774	2223.19	144.32	125.071	2.49403e-5
3.57887e-3	4.31177e-3	1.20479	10.0001	0.0548608	2230.04	144.53	127.192	2.52046e-5
3.47834e-3	4.24139e-3	1.21937	10.0001	0.0547114	2236.86	144.72	128.496	2.51083e-5
3.61829e-3	3.66395e-3	1.01262	10.0001	0.0496010	2243.74	145.02	131.417	2.52439e-5
3.92018e-3	4.24331e-3	1.08243	10.0001	0.0506257	2250.57	145.28	124.628	2.44119e-5
3.82969e-3	3.62986e-3	0.947821	10.0001	0.0483764	2257.37	145.41	129.776	2.54731e-5
3.81740e-3	3.93805e-3	1.03161	10.0001	0.0495958	2264.31	145.72	127.609	2.48108e-5
3.60983e-3	3.97713e-3	1.10175	10.0001	0.0517969	2271.07	145.91	129.176	2.51059e-5
3.24771e-3	3.73675e-3	1.15058	10.0001	0.0529207	2277.91	146.09	133.968	2.53523e-5
3.26117e-3	3.73087e-3	1.14403	10.0001	0.0519948	2284.74	146.32	133.899	2.49738e-5
3.17452e-3	3.68181e-3	1.15980	10.0001	0.0525102	2291.57	146.57	134.958	2.50970e-5
3.25977e-3	3.38796e-3	1.03932	10.0001	0.0497976	2298.37	146.80	136.668	2.50827e-5
3.41524e-3	3.60286e-3	1.05494	10.0001	0.0494531	2305.24	147.05	133.640	2.47024e-5
3.18729e-3	3.39853e-3	1.06628	10.0001	0.0508709	2312.05	147.22	137.151	2.53149e-5
3.25988e-3	3.23610e-3	0.992705	10.0001	0.0486525	2318.85	147.53	137.974	2.50283e-5
3.27606e-3	3.47495e-3	1.06071	10.0001	0.0498305	2325.71	147.67	135.813	2.48556e-5
2.97152e-3	3.26143e-3	1.09756	10.0001	0.0515354	2332.55	147.96	139.948	2.52863e-5
2.92148e-3	3.23222e-3	1.10636	10.0001	0.0512199	2339.41	148.13	140.561	2.50338e-5
2.82628e-3	2.90556e-3	1.02805	10.0001	0.0504684	2346.16	148.35	144.177	2.52831e-5
3.05881e-3	3.25076e-3	1.06275	10.0001	0.0492444	2353.03	148.62	139.396	2.45176e-5
2.91078e-3	3.13485e-3	1.07698	10.0001	0.0509474	2359.82	148.87	141.495	2.51623e-5
2.79020e-3	2.93015e-3	1.05016	10.0001	0.0507845	2366.68	149.05	144.190	2.52197e-5
2.98298e-3	3.07574e-3	1.03110	10.0001	0.0492429	2373.57	149.31	141.509	2.47797e-5
2.69745e-3	2.95811e-3	1.09663	10.0001	0.0518127	2380.29	149.53	144.542	2.52679e-5
2.79185e-3	3.02783e-3	1.08453	10.0001	0.0505300	2386.65	149.79	143.279	2.48138e-5
2.97128e-3	2.77980e-3	0.935556	10.0001	0.0480740	2393.40	150.04	144.372	2.50488e-5
2.46030e-3	2.59102e-3	1.05313	10.0001	0.0521969	2400.24	150.19	149.453	2.54607e-5

[step]
Flow sweep - 5
Stress	Shear rate	Viscosity	Step time	Temperature	Normal stress
MPa	1/s	Pa.s	s	°C	MPa
1.17938e-4	0.100015	1179.20	34.9227	150.00	2.29299e-3
2.45223e-5	0.125884	194.800	69.9999	150.00	2.17077e-3
3.11477e-5	0.158476	196.546	105.016	150.00	2.15914e-3
3.69012e-5	0.199516	184.953	140.096	150.00	2.14709e-3
4.50052e-5	0.251176	179.178	175.088	150.00	2.12162e-3
7.98080e-5	0.316205	252.393	210.192	150.00	2.13040e-3
1.01584e-4	0.398095	255.174	245.297	150.00	2.09745e-3
8.38195e-5	0.501158	167.251	280.270	150.00	2.08326e-3
1.01303e-4	0.630914	160.566	315.377	149.99	2.11718e-3
1.16679e-4	0.794304	146.895	350.420	150.01	2.10490e-3
1.15456e-4	0.999951	115.462	385.468	150.00	2.08943e-3
1.63857e-4	1.25885	130.164	420.559	150.00	2.14027e-3
2.24542e-4	1.58480	141.684	455.677	150.00	2.15627e-3
1.74545e-4	1.99514	87.4854	490.752	150.01	2.09786e-3
2.84438e-4	2.51172	113.244	525.848	150.00	2.07276e-3
3.88252e-4	3.16209	122.783	560.898	150.00	2.03422e-3
3.73981e-4	3.98081	93.9460	595.927	150.00	2.05732e-3
2.85104e-4	5.01163	56.8885	631.021	149.99	1.97266e-3
2.44473e-4	6.30925	38.7483	666.072	150.00	2.09746e-3
2.17905e-4	7.94299	27.4336	701.168	150.00	1.87710e-3
3.01533e-4	9.99950	30.1548	736.261	150.00	1.95338e-3
3.02324e-4	12.5883	24.0162	771.340	150.00	1.88173e-3
3.76037e-4	15.8480	23.7277	806.347	150.00	1.87232e-3
5.30873e-4	19.9515	26.6082	841.411	150.00	1.99260e-3
6.31843e-4	25.1171	25.1559	876.507	150.01	1.95816e-3
6.98583e-4	31.6212	22.0923	911.530	150.00	2.04178e-3
7.49875e-4	39.8082	18.8372	946.614	150.00	2.03934e-3
8.96673e-4	50.1158	17.8920	981.684	150.00	2.12755e-3
1.09498e-3	63.0923	17.3552	1016.79	150.00	2.20624e-3
1.26890e-3	79.4281	15.9755	1051.79	150.00	2.34836e-3
1.47120e-3	99.9946	14.7128	1086.88	150.00	2.57570e-3

[step]
Flow sweep - 6
Stress	Shear rate	Viscosity	Step time	Temperature	Normal stress
MPa	1/s	Pa.s	s	°C	MPa
3.52812e-5	0.0999991	352.815	34.8963	130.00	7.97253e-4
4.34817e-5	0.125893	345.386	69.9349	130.01	8.07723e-4
4.54536e-5	0.158491	286.790	105.029	129.99	7.80002e-4
6.27862e-5	0.199528	314.674	140.098	129.99	7.44410e-4
7.32246e-5	0.251192	291.508	175.135	130.01	7.49186e-4
8.39467e-5	0.316231	265.460	210.257	130.00	7.55900e-4
1.15275e-4	0.398111	289.555	245.379	129.99	7.57880e-4
1.88012e-4	0.501193	375.129	280.434	130.01	8.66113e-4
1.81628e-4	0.630950	287.864	315.469	130.00	7.67405e-4
2.61139e-4	0.794335	328.752	350.555	130.00	7.93957e-4
2.99356e-4	0.999996	299.357	385.696	130.00	8.02182e-4
4.32559e-4	1.25894	343.590	420.787	129.99	8.62325e-4
5.25575e-4	1.58488	331.618	455.879	130.00	1.01918e-3
5.83813e-4	1.99524	292.603	490.896	130.00	9.26221e-4
7.01865e-4	2.51188	279.419	525.999	130.00	9.78212e-4
8.53359e-4	3.16225	269.858	560.983	130.01	1.05461e-3
1.07015e-3	3.98100	268.814	596.062	130.00	1.27013e-3
1.30797e-3	5.01182	260.976	631.135	130.00	1.38884e-3
1.60204e-3	6.30959	253.906	666.201	130.00	1.66390e-3
2.00124e-3	7.94316	251.946	701.161	130.00	2.04487e-3
2.49656e-3	10.0002	249.651	736.241	130.00	2.59695e-3
2.85074e-3	12.5891	226.445	771.379	129.99	3.15407e-3
3.41077e-3	15.8489	215.206	806.396	130.00	3.81370e-3
4.59294e-3	19.9525	230.194	841.412	130.00	5.79068e-3
5.09741e-3	25.1191	202.930	876.534	130.00	7.31546e-3
6.21602e-3	31.6225	196.569	911.489	129.99	0.0100575
7.81679e-3	39.8107	196.349	946.593	130.00	0.0139339
9.67923e-3	50.1182	193.128	981.632	130.00	0.0188503
0.0117315	63.0956	185.932	1016.75	129.99	0.0255568
0.0147577	79.4324	185.790	1051.83	129.99	0.0344360
0.0184473	100.000	184.472	1086.89	130.00	0.0445890

[step]
Flow sweep - 7
Stress	Shear rate	Viscosity	Step time	Temperature	Normal stress
MPa	1/s	Pa.s	s	°C	MPa
1.20967e-3	0.100006	12096.0	34.9507	110.00	2.42657e-4
1.49161e-3	0.125897	11847.9	70.0392	110.00	4.91488e-4
1.88882e-3	0.158494	11917.3	105.143	110.00	8.61412e-4
2.53697e-3	0.199536	12714.4	140.263	110.00	1.63576e-3
3.04055e-3	0.251199	12104.1	175.240	110.00	1.90681e-3
3.88423e-3	0.316234	12282.7	210.257	110.00	4.50142e-3
5.27431e-3	0.398112	13248.3	245.360	110.00	6.43956e-3
6.16818e-3	0.501206	12306.7	280.363	110.00	8.75719e-3
6.99767e-3	0.630984	11090.1	315.462	110.00	9.78261e-3
8.67957e-3	0.794350	10926.6	350.532	110.00	0.0133406
0.0101122	1.00004	10111.8	385.535	110.00	0.0184137
0.0131095	1.25899	10412.7	421.830	110.01	0.0266009
0.0167262	1.58493	10553.2	456.919	110.00	0.0383069
0.0197598	1.99534	9902.95	492.020	110.00	0.0510470
0.0230012	2.51191	9156.85	527.033	110.00	0.0688767
0.0284017	3.16239	8981.10	562.156	110.00	0.0920473
0.0356708	3.98113	8959.96	597.285	110.01	0.124294
0.0436145	5.01210	8701.85	632.384	110.00	0.166946
0.0544421	6.30989	8628.06	667.385	110.00	0.217550
0.0696798	7.94441	8770.92	702.461	110.00	0.281424
0.0686890	10.0006	6868.51	737.569	109.99	0.326568
0.0675141	12.5903	5362.38	772.620	110.00	0.322867
0.0734437	15.8496	4633.81	807.696	110.00	0.324682
0.0818234	19.9534	4100.73	842.776	110.00	0.303783
0.0850026	25.1199	3383.88	877.835	110.00	0.258647
0.0902214	31.6243	2852.91	912.942	110.01	0.221824
0.0907647	39.8124	2279.81	947.905	110.00	0.189955
0.0951536	50.1209	1898.48	982.943	110.01	0.168295
0.0896517	63.0984	1420.82	1018.03	110.00	0.149190
0.0849495	79.4352	1069.42	1053.08	110.00	0.127851
0.0844641	100.004	844.611	1088.10	110.00	0.122147

[step]
Flow sweep - 8
Stress	Shear rate	Viscosity	Step time	Temperature	Normal stress
MPa	1/s	Pa.s	s	°C	MPa
0.0740500	0.0998970	741263	34.9762	90.00	0.0193653
0.118049	0.125834	938138	69.9910	90.01	0.115374
0.149195	0.158485	941381	105.059	89.99	0.225035
0.177132	0.199514	887814	140.178	89.99	0.295234
0.219676	0.251160	874643	175.173	90.00	0.345922
0.274466	0.316212	867979	210.227	90.00	0.395556
0.337971	0.398081	849001	245.348	90.00	0.460257
0.416295	0.501223	830558	280.418	90.00	0.525163
0.494561	0.630950	783836	315.514	90.00	0.600271
0.585051	0.794371	736495	350.580	90.00	0.655463
0.665469	0.999977	665484	385.696	90.00	0.714233
0.747751	1.25913	593861	420.750	90.00	0.747742
0.780594	1.58504	492475	455.769	90.00	0.743322
0.815566	1.99541	408722	490.849	90.00	0.739540
0.825515	2.51130	328720	525.931	90.00	0.680721
0.687700	3.16273	217439	560.904	90.00	0.656879
0.897051	3.98195	225279	595.996	90.00	0.690937
0.833322	5.01562	166145	631.134	90.01	0.642622
0.561947	6.30962	89061.9	666.106	90.00	0.532771
0.396134	7.94225	49876.7	701.164	89.99	0.389445
0.236933	9.99907	23695.5	736.244	90.00	0.271274
0.145335	12.5898	11543.9	771.297	90.00	0.203996
0.0515421	15.8475	3252.38	806.312	90.00	0.106380
0.0375151	19.9521	1880.26	841.399	90.00	0.0900504
0.0131770	25.1158	524.652	876.482	90.00	0.0436042
5.27109e-4	31.6213	16.6694	911.487	90.00	2.24888e-3
2.36578e-4	39.8070	5.94312	946.518	90.00	-4.17231e-5
1.73707e-4	50.1165	3.46606	981.638	90.00	-1.16894e-4
1.28497e-4	63.0927	2.03663	1016.70	90.00	-3.85809e-4
1.05154e-4	79.4276	1.32389	1051.68	90.00	-5.63920e-4
9.03291e-5	99.9974	0.903315	1086.75	90.00	-5.63129e-4

[step]
Flow sweep - 9
Stress	Shear rate	Viscosity	Step time	Temperature	Normal stress
MPa	1/s	Pa.s	s	°C	MPa
0.0111573	0.0999994	111573	34.9784	69.99	0.0799117
0.0117457	0.125884	93305.8	70.0701	70.00	0.0826670
0.0222146	0.158459	140192	105.190	70.00	0.133809
0.0321602	0.199510	161196	140.307	70.00	0.173417
0.0441427	0.251167	175750	175.289	69.99	0.233745
0.0392832	0.316172	124246	210.401	70.00	0.266487
0.0506992	0.398099	127353	245.434	70.00	0.391676
0.129680	0.500729	258983	280.523	70.00	0.486602
0.226509	0.631405	358739	315.527	70.00	0.637668
0.156545	0.794086	197138	350.587	70.00	0.649838
0.179546	1.00009	179530	385.725	70.00	0.763631
0.141499	1.25885	112403	420.813	70.00	0.706227
0.126032	1.58431	79550.1	455.801	70.01	0.462477
0.114122	1.99617	57170.5	490.855	70.00	0.408409
0.102169	2.51251	40664.0	525.952	70.00	0.334949
0.0888299	3.16205	28092.5	561.061	70.00	0.264123
0.0848316	3.98123	21307.9	596.079	70.00	0.253193
0.0560071	5.01063	11177.7	631.153	70.00	0.168303
0.0255471	6.31036	4048.43	666.292	70.00	0.0903130
0.0133585	7.94746	1680.85	701.433	70.00	0.0498112
0.0123979	9.99985	1239.81	736.479	70.00	0.0459692
0.0115808	12.6052	918.736	771.591	70.00	0.0424311
0.0108144	15.8490	682.336	806.712	70.01	0.0439930
0.0100375	19.9540	503.032	841.818	70.00	0.0390868
9.41105e-3	25.0708	375.380	876.874	70.00	0.0292465
8.65875e-3	31.6219	273.822	911.902	70.00	0.0307443
7.86653e-3	39.8095	197.604	946.950	70.00	0.0285631
7.37852e-3	50.1177	147.224	982.047	70.00	0.0235196
6.71367e-3	63.0949	106.406	1017.09	70.01	0.0249854
6.34222e-3	79.4323	79.8443	1052.18	70.00	0.0255577
5.60819e-3	99.9985	56.0828	1087.28	70.00	0.0241638

[step]
Flow sweep - 10
Stress	Shear rate	Viscosity	Step time	Temperature	Normal stress
MPa	1/s	Pa.s	s	°C	MPa
2.85382e-3	0.0999929	28540.2	34.9773	60.00	9.72012e-3
3.04728e-3	0.125899	24204.2	70.0695	60.00	0.0155787
1.57451e-3	0.158526	9932.18	105.114	60.00	0.0224283
1.13704e-3	0.199535	5698.46	140.191	60.00	0.0232187
1.48358e-3	0.251191	5906.20	175.292	60.00	5.67575e-3
1.14195e-3	0.316203	3611.44	210.320	59.99	0.0190485
9.55189e-4	0.398123	2399.23	245.373	60.00	7.39473e-3
9.04337e-4	0.501172	1804.45	280.472	60.01	0.0179982
6.92620e-4	0.631054	1097.56	315.534	60.00	0.0127522
7.42829e-4	0.793959	935.601	350.602	60.00	0.0114077
6.39491e-4	1.00012	639.412	385.699	60.00	9.40977e-3
7.65941e-4	1.25971	608.027	420.742	59.99	0.0118945
6.53740e-4	1.58486	412.489	455.802	60.01	0.0107592
6.49381e-4	1.99551	325.421	490.889	60.00	0.0106887
6.03971e-4	2.51295	240.343	525.965	60.00	0.0102109
5.99646e-4	3.16111	189.695	561.048	60.00	0.0104405
5.79374e-4	3.98021	145.564	596.133	59.99	9.55187e-3
5.84054e-4	5.01324	116.502	631.254	60.01	9.55849e-3
5.69404e-4	6.31184	90.2119	666.235	60.00	9.34132e-3
5.66687e-4	7.94638	71.3139	701.296	60.00	9.04047e-3
5.74443e-4	10.0004	57.4421	736.375	60.00	9.14579e-3
5.67236e-4	12.5927	45.0449	771.451	60.00	8.74739e-3
5.82122e-4	15.8506	36.7255	806.506	60.00	7.66139e-3
5.85520e-4	19.9535	29.3443	841.546	60.00	7.94058e-3
5.92815e-4	25.1521	23.5692	876.638	60.01	6.10753e-3
6.05378e-4	31.6235	19.1433	911.703	60.00	1.44153e-3
5.93428e-4	39.8117	14.9059	946.720	59.99	2.54920e-3
5.58339e-4	50.1200	11.1401	981.850	60.00	5.85505e-3
5.49232e-4	63.0972	8.70453	1016.96	60.00	6.12414e-3
5.22479e-4	79.4347	6.57746	1051.96	60.00	7.96103e-3
5.00387e-4	100.002	5.00375	1087.04	60.01	7.65247e-3

[step]
Axial - 11
Step time	Temperature	Normal stress	Axial force	Gap
s	°C	MPa	N	µm
1.04562	150.03	2.50586e-3	0.0629791	4739.32
2.04967	150.07	2.53730e-3	0.0637693	13832.8
3.05384	149.98	2.72342e-3	0.0684470	23831.9
4.05774	150.00	2.72550e-3	0.0684994	33832.5

